Time [s],Linear Acceleration x [m/s^2],Linear Acceleration y [m/s^2],Linear Acceleration z [m/s^2]
0.0,-0.10396583992156705,0.08569936492385583,0.2788138208675295
0.02,0.024524044288219398,-0.06365825177808399,0.9066483645498239
0.04,-0.061482443659863655,-0.07150750552245437,0.8540523920252157
0.06,-0.04021067471446231,0.01728433832822942,1.3153215588481373
0.08,0.0009887449128910377,-0.04558790816022787,1.2139805291610413
0.1,0.1055462667100162,0.08413924720610488,1.52527836589343
0.12,-0.08033298889150929,-0.049407536988679224,1.080842347386889
0.14,-0.013976453948771185,0.05976201679841397,1.3805765693081349
0.16,0.02078595515135087,0.12379880269510678,1.2648567632544905
0.18,-0.06275857214644133,0.012915194756613367,1.785709798203517
0.2,0.007461153252244403,0.08203408097216194,1.3910241132300774
0.22,0.040127842299492844,-0.028272526675577475,1.380669190184859
0.24,0.069686116844406,0.02554288054119552,0.9242934117031386
0.26,-0.03158112600388673,-0.01880260423653201,0.8525082856461946
0.28,0.02334939996219291,-0.015378822258720119,0.8775429735120793
0.3,-0.00014031602313573845,0.011201835053326416,0.35877620752063294
0.32,-0.042234826337086605,0.014374554938909798,-0.30808015636505665
0.34,0.04712434872739606,-0.01941432411288374,-0.03384373790215027
0.36,-0.011034600395142214,0.03354880987553005,-0.3089710404782095
0.38,-0.06423408557273734,-0.01048355069028706,-0.17930012366790754
0.4,-0.017032362756709107,-0.045173882800792625,-0.3441799257364132
0.42,-0.005360222663977419,0.05489279803761418,-0.5667182932979927
0.44,0.049784044802840564,-0.03344606304862644,-0.17078225144514397
0.46,-0.0030575821792921793,-0.01460250486371525,-0.33464229345476404
0.48,0.0025451085950805533,-0.05764686773273439,-0.5333490729618634
0.5,0.02551842745042289,0.053437696698978736,-0.4611560482342256
0.52,-0.0731118741094305,-0.07290253218708143,-0.3794722493566832
0.54,-0.006346926026749515,-0.017589453752833894,0.018183605418681137
0.56,0.1000898184282829,0.05802403460239093,0.0481254621913284
0.58,-0.041831474050451546,0.07396242761428616,0.4313114703556051
0.6,-0.0139478607897195,-0.025023148562491333,0.19713678618851693
0.62,0.011512831075084485,-0.0446724197884935,0.8959102470211155
0.64,0.022564562601392765,0.05476759331788289,0.8555562259148393
0.66,-0.04464844999051096,-0.036532276294519335,1.0778821652650556
0.68,-0.04609291016672759,-0.05145202221840607,1.1816804722409504
0.7000000000000001,0.008383342188161034,0.02920712616679734,1.1983595798201458
0.72,-0.09179263494227385,0.05706490838189279,1.4977813197914114
0.74,0.03345531649853706,-0.033891035281953405,1.3864897900891613
0.76,-0.030921647196777476,0.08266771370524711,1.6940100263265445
0.78,0.0038484643662539393,-0.07600904985135348,1.628698033279134
0.8,0.05754445332221125,0.08983001754713317,1.454303533827082
0.8200000000000001,0.00928282432938813,0.028510195149301046,1.6420023708151625
0.84,-0.006281083476856373,0.04747690571697917,1.3165513281330008
0.86,-0.15217102538438607,-0.006889453386885834,0.6888535949699193
0.88,0.05874039849432731,0.01500184036794586,0.8517964421494802
0.9,0.006171906237566232,0.03603463590080316,0.6558837172411756
0.92,0.011034201561637029,0.07598110962601239,0.6604888406653752
0.9400000000000001,-0.089221933135247,-0.02346224397341728,0.5245148804916508
0.96,-0.059963864703768445,-0.06124598634429297,-0.055894280404067825
0.98,-0.09268746923192578,0.09178263293235855,0.03448081102576611
1.0,0.01166151484778243,-0.05751729351160803,0.06975727950560545
1.02,0.023780597093968528,0.10389551285074504,-0.3882242586619541
1.04,0.016671054469689327,0.05053367845190548,-0.6005701022296951
1.06,-0.023508385601899093,-0.022388530055216564,-0.4428588855903217
1.08,-0.012128176539325092,0.038293745928142414,-0.7276068719002524
1.1,0.031320947970750204,-0.03536902234701697,-0.5579036859292487
1.12,0.10737896230668094,0.07724660416532514,-0.3967713261867246
1.1400000000000001,-0.05771641379812842,-0.01831540936424515,-0.11588147905198712
1.16,0.00021824600925662922,0.011375087435511487,-0.28036611992747235
1.18,-0.022862050982847465,0.015135978427577768,-0.19838417321089516
1.2,-0.007840954538698604,0.02591688551600639,0.4880887783909078
1.22,-0.06418877046247982,-0.00720346478969392,0.6282868302915797
1.24,0.02443622587250595,1.6287753264451934e-05,0.5163712496466022
1.26,0.02728070803241396,0.0008926163883672104,0.53060776241957
1.28,-0.08772450018349659,-0.042820534858266666,0.9203682938942193
1.3,-0.06298011431266952,-0.07352911447006079,1.4491741006938001
1.32,-0.0851774270735206,-0.020666882231636947,1.0536414162760706
1.34,0.004528374327099722,0.04676024046485149,1.5650823992727183
1.36,0.04200457480120348,0.04858679464311593,1.6322558145509622
1.3800000000000001,-0.025306987667301252,0.016630601766921813,1.3915306025161758
1.4000000000000001,-0.004525669989175761,0.039640120515036736,1.354039865303549
1.42,0.047077799777053,-0.059455464557686605,1.1832117861869835
1.44,-0.011044248719807567,0.02021696975629581,1.3475852214573092
1.46,-0.038048168620509956,0.013001454236404681,1.3494784956990538
1.48,0.028421844137560288,0.029175214946577654,1.0160061391293649
1.5,-0.005039868720175509,0.025206522527790733,1.223963588601947
1.52,-0.039845384324282085,0.010168874795100764,0.6251048332399285
1.54,0.025773640731899573,-0.017932978475647215,0.6065959799249501
1.56,0.06262214929946644,-0.006089458674450195,0.4991998640983201
1.58,-0.1267399911616652,0.00955527131959552,0.0946803885601521
1.6,0.020257962225736545,0.09710518194181643,0.12648562153813414
1.62,-0.02115345459448884,0.06105669535118311,0.04357388758822486
1.6400000000000001,-0.06786388547293365,-0.023326367563776713,-0.12661400436758738
1.6600000000000001,0.027991485870077843,0.03144895540893142,-0.22273065148599258
1.68,0.016700411591123617,0.04704287904134737,-0.4170237901986713
1.7,-0.08607780675913862,0.08446989500977975,-0.44370919046030693
1.72,-0.05574873474222491,-0.0013149457909056314,-0.26972663035079314
1.74,0.05398478219494666,-0.002936878584597896,-0.5820329146575287
1.76,-0.004104403621667577,0.011101272269997338,-0.513551467198065
1.78,-0.07439789470531538,0.0372882591840034,-0.47931151241156106
1.8,-0.02988040875894446,0.00911696195543245,0.09929461902258757
1.82,-0.04759789313738084,0.024215510867350253,0.046437852593628065
1.84,0.092590293027761,0.0037024887724303166,0.44002160518028166
1.86,-0.014802229656389372,-0.0372343443189099,0.5716248975262976
1.8800000000000001,-0.018712940845191324,0.05346950071202881,0.7604885326045657
1.9000000000000001,-0.0204845376622276,0.0007761606445123564,0.9472931589562299
1.92,0.04748585242761014,0.012067445277961162,1.2511448398748073
1.94,-0.010744861107085925,-0.058591849294506275,1.0973828668455212
1.96,0.0809633077636796,-0.09238147407112667,1.4173399454597857
1.98,0.0319161051947155,-0.052774479183929225,1.4010569060307154
2.0,-0.06342408324577546,0.06059364283199384,1.6111435704855674
2.02,0.041321010840584746,-0.12613152623614796,1.6634183999971
2.04,-0.06554655670222774,0.04058337349703183,1.4322076700215733
2.06,-0.013786721583151884,0.06527376401287771,1.2214961483918143
2.08,0.03939525347955192,0.058953699602427516,1.2084052720474245
2.1,-0.06598144321620926,0.0014794373663384684,1.1233328632167128
2.12,-0.025765675500847452,-0.0173195282925156,1.2218363258888878
2.14,-0.007567202559191014,0.023738782193282976,0.5056160566070114
2.16,0.07107237189007402,-0.022161799513854746,0.6277691589524571
2.18,0.012915132319511434,-0.036507389225434235,0.2737349392446159
2.2,-0.017505099957387835,0.022391309446732295,-0.19213677002462176
2.22,-0.0400148030969874,0.00818513576025903,0.077439357647572
2.24,-0.013206720561009378,-0.03449227338081489,-0.2432536050556981
2.2600000000000002,-0.019257314331884268,-0.04817280356152463,-0.5633313185847433
2.2800000000000002,-0.040532754108945995,0.002780437655061056,-0.3191576469163181
2.3000000000000003,0.008385451836827795,-0.016898502853043305,-0.01843134311648048
2.32,-0.009774196771567156,-0.050842279390951775,-0.8150444227088744
2.34,-0.047308561700345884,-0.03776527824813102,-0.27002601485113287
2.36,-0.021594127886232238,0.07938119768859528,0.056981800193766974
2.38,0.015566222841057367,0.0024342936884437583,-0.3867014889835746
2.4,0.0900111421093203,-0.06417829051747061,-0.1640767896420501
2.42,0.040965938643369754,0.026433706614533755,0.5061496197251303
2.44,0.021933998260215092,-0.010161517985232913,0.380815355213087
2.46,-0.047436467335109866,0.036029418687861206,0.15618433048166322
2.48,-0.029559297003714437,-0.004582816688182398,0.45297525060281124
2.5,0.05176152852119607,0.007404547744541009,0.9372183843097348
2.52,0.05233910630396125,-0.058574262354456855,0.9175346691239098
2.54,0.011283807812831352,0.06993386602464906,1.1559403565388688
2.56,0.12907725720297544,-0.047760948380231025,1.3493536878724948
2.58,-0.06350038524997963,0.11665123255691477,0.9243513482133583
2.6,0.02292431197903519,-0.07573762880403075,1.243742609237012
2.62,-0.03883072940920296,0.04969444675573699,1.5287585264166486
2.64,-0.09417378054265112,0.025340156349724793,1.4158141301000144
2.66,0.014717152981252219,0.010533435433930663,1.6789327838033148
2.68,0.026432404910826737,-0.01904079164150565,1.0597357128048017
2.7,-0.015470736129304883,0.03100032249898843,1.4624138447213584
2.72,-0.04811412857755179,-0.026219445754549753,1.145044241446967
2.74,-0.045719979500313424,0.044015893816441956,0.4461338646977807
2.7600000000000002,0.01223677990851088,-0.07287538295968607,0.8014548103028374
2.7800000000000002,-0.02382158923199318,0.0596781416563466,0.6294401350878068
2.8000000000000003,0.006010980705622604,0.03334420445123688,0.09363937142624468
2.82,0.03437423166773974,0.039392405832193694,-0.22984653020321072
2.84,0.1055321325511428,-0.08088138043850417,-0.18978402280903744
2.86,-0.009373298807745133,-0.05736101448239257,0.0948103222007114
2.88,-0.01817873325164896,0.02616379149772309,-0.3319856259733174
2.9,0.09159425968735783,0.02065815888806025,-0.5410255957779837
2.92,-0.027562968209045483,0.025021208641784476,-0.5543799990646507
2.94,-0.0006982624123511999,0.014229296726110658,-0.07287037282633557
2.96,0.06293148866289121,-0.04153876328204461,-0.5826220406712517
2.98,0.03707819777854878,-0.015958659391322624,-0.5999532741811663
3.0,0.012607911405149178,0.028858372950295044,-0.34538431686304416
3.02,0.025576326452081417,-0.058039272192079105,-0.010222777162348429
3.04,-0.03899781289937746,-0.08428146784896302,-0.21557698356823018
3.06,-0.023839364312795455,-0.11299344980366491,0.42397132601315846
3.08,0.045218375034591314,-0.07228410633741926,0.20193422467480626
3.1,-0.007818235586549566,0.05108651813526738,0.13762690079718815
3.12,0.07923046910869357,0.018632819572715186,0.3077886276057014
3.14,0.01346133820434961,0.06695896760756664,0.9062820693274788
3.16,0.0383582945081419,-0.020240172054909893,0.8422989488309739
3.18,-0.07588810695195249,0.04753539537346222,1.1596498408548017
3.2,-0.01585481930585623,0.03882523406722113,1.3977224261412227
3.22,-0.05013500770207768,-0.012569279610420146,1.299307933809389
3.24,0.06338141174453489,-0.006988925135582559,1.6441706848396458
3.2600000000000002,-0.044123136787241335,-0.08314921557972538,1.323821181905516
3.2800000000000002,0.05208313058017199,-0.01976140875351884,1.4314729320664386
3.3000000000000003,-0.04423968436121456,0.059965958516946506,0.8883052935156706
3.3200000000000003,-0.025125550928928986,0.02261723654480493,1.0372717686516464
3.34,0.0963889323083084,0.0010717733994302535,0.9565105422589575
3.36,-0.10278383207102881,-0.055579607115342614,1.43706380261486
3.38,-0.0668659493992158,0.029909955298619107,0.7291972705431639
3.4,0.01605349046426581,-0.03952144832478788,0.7910559337475054
3.42,-0.04358403904632013,0.013979354013190698,0.6107235445141264
3.44,0.05821036835359118,0.09234452228335506,0.3103075114682924
3.46,-0.10211570022033652,-0.019897491627648867,0.222636008263834
3.48,0.08898687767314213,-0.04431067159485841,-0.5634246114943542
3.5,-0.08689791520101876,-0.043208267428240604,-0.5925460703663722
3.52,-0.02126231699596825,0.03525427558836571,-0.832129808902103
3.54,0.008613853495889346,0.09575314270999676,-0.3528615950417143
3.56,-0.10171348240113105,0.031406665900622854,-0.6449416808241781
3.58,0.04984794702862998,0.062226291504423784,-0.13139964992141012
3.6,-0.045393306558366354,-0.0611300959024452,-0.5647130128872669
3.62,0.037385377863453216,-0.03915167575270655,-0.1703135431989987
3.64,0.0634304009181184,0.07819311832945933,0.0806345360718776
3.66,0.037012585215587805,-0.06926870727765506,-0.33902735828328345
3.68,0.03422215283633612,-0.061246493151153686,-0.35568291583985123
3.7,-0.07974443495321165,-0.11309363051740379,0.4663035937330406
3.72,0.008748304411368962,-0.018860847132445707,0.597167187399574
3.74,-0.015252406442020132,0.056944418950562375,0.8800382791195263
3.7600000000000002,-0.052305846519797944,0.014191057384572776,0.7871219688274976
3.7800000000000002,-0.03126333212709281,-0.039920320779297594,0.9786804593555299
3.8000000000000003,0.01515539729105772,-0.005102940373521112,0.8927731963692737
3.8200000000000003,0.04505467742754616,-0.04786357856886197,1.566028096875773
3.84,-0.00083205998796982,-0.034924898207106606,1.4447343436805895
3.86,-0.020443063387036137,0.11014354116985776,1.7630424381443957
3.88,-0.017241789724887983,0.06786011682865027,1.3456054636277428
3.9,0.003179294153755197,-0.00880714833720644,1.197671117585001
3.92,-0.03022446428063018,-0.07233873219511622,1.3382364213840097
3.94,0.04554492534719831,-0.09971432801580295,1.2496878631340007
3.96,-0.04264150307068003,-0.03878039377445014,1.1669004514342352
3.98,-0.02468210596621066,0.06991074771316867,0.9321138671493472
4.0,0.010341888241468318,-0.07438764291102327,0.9167483587608979
4.0200000000000005,-0.01765704955722631,0.013397607503129454,0.3246226644279502
4.04,0.10679678043093464,-0.08327250056721783,0.25482112448738303
4.0600000000000005,-0.08613443498855188,0.0687886145108607,0.6906234511521067
4.08,0.02448379352383955,0.042938592747869014,0.31240381353490143
4.1,-0.0583067066042437,0.003123036902829414,-0.15413697116378183
4.12,0.041210355767393486,0.07253100148446105,-0.3614446408084264
4.14,0.01893214634206575,-0.0330825287566146,-0.11514165506070193
4.16,-0.10405767933719678,0.012533968753507386,-0.5826641388390297
4.18,0.008946434794868981,0.11096305876557938,-0.038332580933603144
4.2,-0.000260146549980906,-0.0006305342779452424,-0.49552472778775364
4.22,0.02456378161163566,0.009953566101075798,-0.3043302835455397
4.24,-0.054695696482031236,-0.00477036171410752,-0.5467111927889695
4.26,-0.0043064448467799495,-0.02864683851827701,-0.058927850704126095
4.28,-0.050399246991690544,0.04150767802889216,-0.20328261219897953
4.3,0.011747282855083167,-0.03878141130186342,0.1563514698122633
4.32,0.04773768638569162,-0.02677014941368633,0.025086512164405023
4.34,-0.012001914729420497,0.060249900227832644,0.6345884953462746
4.36,0.04682462709442292,0.08375667406370746,0.3857722191645364
4.38,-0.01748554793981545,0.04861664113506764,0.38825354899600556
4.4,0.045324775649566836,-0.08961849738627992,1.0643007011287169
4.42,0.10043336973985839,-0.06917912642484818,1.1538948873269188
4.44,0.03854225925412649,0.016421274892984335,1.113187095797841
4.46,0.017263083427547805,-0.02505643835929224,1.3093035736074594
4.48,0.013712538494006228,0.027219759103617763,1.5936824205404643
4.5,-0.004786818226531691,-1.2268974499333074e-05,1.7149680366585356
4.5200000000000005,0.06479008957695712,0.04811643923332394,1.2406903195196572
4.54,-0.0580269215065845,-0.015644789928550614,1.5356456295058338
4.5600000000000005,-0.04985121809257918,0.016390689836917757,1.338290723217747
4.58,-0.03427526929633186,-0.044359952115014485,1.2994994038649248
4.6000000000000005,0.10522718931727026,-0.06337569518645414,1.010840354389867
4.62,0.04861117073380768,-0.0021814124710751665,0.8052592182605957
4.64,-0.023930824281000716,0.062927247347644,0.8110134514163798
4.66,0.018451451449291147,-0.07346019192000826,0.8099186305253399
4.68,-0.11153123365597915,-0.01428043553486625,0.5959355567716758
4.7,0.03727040546969796,-0.007103635848005322,0.05345657482153773
4.72,0.04636945984416351,0.009688131467438327,0.15271506277705302
4.74,0.041228675824033195,0.022134389097062623,-0.08951473153981057
4.76,0.07047117001180096,-0.026209095093559356,-0.19409984848483813
4.78,-0.05012076730513063,0.04109409581179927,-0.5999709966777483
4.8,0.006734511932225908,0.02204309333731859,-0.5517969830553926
4.82,-0.043210357674315386,-0.036752031812989264,-0.6394126778339936
4.84,-0.052867856801633084,-0.03154494088109474,-0.6824055134406125
4.86,0.10954696204741154,0.04994918020212996,-0.48914121827198864
4.88,-0.013357521490330919,0.05806826022937597,-0.35383057189433675
4.9,-0.054833057559389775,0.08618688675113872,0.25225571899395094
4.92,-0.03842537466209026,0.025140054939137457,0.07622310096286786
4.94,0.14459580998301025,-0.02685553687534268,0.045120593679313106
4.96,0.02954549193810937,-0.02293518149104982,0.5412093063400495
4.98,0.03469034571792347,-0.04861383504046578,0.29571733843907166
5.0,-0.04916083905969729,0.07819021451290112,0.44933456464991167
5.0200000000000005,-0.04954236781810034,-0.007190579174778409,0.5829178838974092
5.04,-0.028319780485449836,-0.07914246491945029,1.0175365391825406
5.0600000000000005,-0.04027343146789672,-0.08641856404406145,1.271315622649044
5.08,0.0010970611584742449,0.005271426352649248,1.0277377381886301
5.1000000000000005,0.14387553740571518,0.0525618804335511,1.6066785864684352
5.12,-0.02786241319752296,-0.04609575912490395,1.3289762690447802
5.14,-0.0060042653739043675,-0.008798739003056477,1.5728122672040847
5.16,-0.09969395704933609,0.048896007419883786,1.5139970365905198
5.18,0.015006311852111967,-0.03454333917011789,1.2112243691307099
5.2,-0.028834448729172665,-0.028772999462186845,1.32454266477126
5.22,0.08459522398124127,-0.032571556472758764,1.509827732993691
5.24,-0.04083473526119971,-0.08909420927933383,0.9969671765056233
5.26,-0.012264720223267151,0.06601654393703073,0.9959160662097208
5.28,0.045636779156448204,-0.027525668847917253,0.8755631846956458
5.3,-0.03418280249277342,-0.008512801434728887,0.30240968973623394
5.32,-0.1132714733124136,0.06300479789891743,-0.07082779677895135
5.34,-0.046002168657484944,-0.004730023930110992,-0.10956443986668565
5.36,0.02729217260132737,-0.061635626393925794,-0.0751955547519943
5.38,0.006480387549076168,-0.05335531565229234,-0.07869907038368418
5.4,0.042466969882863526,0.07061311881845427,-0.2393667543877206
5.42,-0.05218560677432604,-0.036709518288419105,-0.630100262844833
5.44,-0.05399522334814545,-0.003096610678055896,-0.3442752691400232
5.46,-0.000843832009871527,0.024670324684382683,-0.5843642090710501
5.48,-0.04402494257412177,0.06076137334858557,-0.42910775866699086
5.5,-0.003611325935669584,-0.04094747026496165,-0.05967078160593692
5.5200000000000005,-0.11192142152225687,-0.00019754171807332766,-0.34827328152246584
5.54,-0.032698314226243745,-0.1043165915025483,-0.1040119971636042
5.5600000000000005,-0.06347537478272867,-0.04564784057154617,0.461394010260532
5.58,0.04005768427829512,-0.030622744170778024,0.2084803040404459
5.6000000000000005,-0.028596614912006442,-0.02534112026124177,0.45994907386218653
5.62,0.039057689196086876,0.016496154749616118,0.8946762252068547
5.64,0.01499587114566594,0.014375763087158617,0.6634439255994358
5.66,0.006399286393667218,0.10080049453474182,0.9084079619641408
5.68,-0.029923379269532747,0.007720798394852065,1.3081102839065086
5.7,0.12804412708267093,0.05333391087378565,1.1348466012457028
5.72,-0.03391557647204907,-0.01415255212375112,1.5431454834077203
5.74,-0.06421713531787493,-0.006279673388382117,1.4348532009806048
5.76,-0.02503218928783914,0.04991599191504385,1.411540125760954
5.78,0.010204931991149094,-0.03332877539692587,1.2876936458455246
5.8,0.011114599728497165,-0.026511996945478695,1.4735077256830083
5.82,-0.00716030024135535,-0.011030792021062077,1.1146277446416337
5.84,0.007851892075517562,-0.015443837210995726,1.0686013293354122
5.86,0.06516185249051205,0.026680114315103972,1.1907325580058046
5.88,0.00774581602062548,-0.006656845511988452,1.0374443365283663
5.9,0.05575603244835155,-0.09580616462640172,0.6144970137069857
5.92,-0.040671103285702996,-0.01747296138933429,0.29104306653635936
5.94,-0.038093768527228435,-0.031335032997112384,0.29639382502508627
5.96,0.03093175821158883,-0.04918884396658189,0.16954025637375109
5.98,-0.06505026352811792,-0.04653761808582829,-0.3774287424795449
6.0,-0.006192947912907049,-0.027723747249352677,-0.0008825558833481795
6.0200000000000005,0.034717832294386755,0.03954064993744784,-0.34306541329102935
6.04,-0.0015653696211198602,0.10563771432696403,-0.5687806807442132
6.0600000000000005,-0.025190942302498,0.06645592451259623,-0.41880869011838473
6.08,0.04840303811250107,-0.028144483902239798,-0.7131130996864374
6.1000000000000005,-0.056510247174448504,0.007162472285667016,-0.4029443812362081
6.12,-0.012804848519737552,-0.04469806098067847,-0.2143772851096519
6.140000000000001,-0.024721484221340434,-0.04655557520883856,-0.34515232061725903
6.16,0.050088321563946304,-0.08736566344448571,0.008713526855798848
6.18,-0.06887148976419953,0.05105011639629638,-0.07740722607592285
6.2,0.002616666577386923,-0.03591882772345949,0.38815827687489285
6.22,-0.03113003188144844,0.01789629396402287,0.3732415151296052
6.24,-0.023570179799862468,0.022271895149896807,0.5973883301719082
6.26,0.021389924026061543,-0.10876747483955063,0.4934158761446997
6.28,-0.02076851486721648,-0.010379755032434641,0.6075600785340247
6.3,0.05208480980303387,-0.012577565970391856,1.1345688078766183
6.32,0.024137155706522292,-0.07549143987576191,1.2497256340216332
6.34,-0.043841485974767,0.019322321280358427,1.542285271597636
6.36,0.019964426678281584,0.011038776341635938,1.5357464539234922
6.38,-0.03724402633857976,0.05458388289030526,1.738076353253608
6.4,-0.061766956913493334,0.017008496155587815,1.4170834489427786
6.42,0.020540621438944202,0.0426211384818815,1.1007034229368566
6.44,0.07266179683781276,-0.032933486918115894,1.0401496984327872
6.46,0.04421878475936111,0.07127755475927397,1.3693898306660701
6.48,0.00835602162658077,-0.005016407167104141,1.170282947358124
6.5,-0.005249965898454209,-0.0651238542404192,0.8815254453874959
6.5200000000000005,-0.06831017045078545,0.05147826539058673,0.5056818677509969
6.54,0.03315985419242967,-0.03388437863217782,0.5126680327518787
6.5600000000000005,0.024099443325025068,0.07634494673680702,0.20894344677278942
6.58,0.06023976776115356,0.03630571937978957,0.18516521429086236
6.6000000000000005,-0.027082716166017463,-0.0012664873109072938,-0.3444160601803548
6.62,-0.05893663273321788,-0.012787458436996038,-0.2590399511319622
6.640000000000001,-0.08932205905592733,0.014836411747549409,-0.08010353407676207
6.66,0.03667183625111446,0.013336805337225314,-0.46117841514193336
6.68,0.028072401449061653,0.026189110244844382,-0.7699941848743699
6.7,-0.1489883010973698,-0.12105955491201992,-0.6521455801681485
6.72,-0.07487460189547028,0.07545562431558454,-0.5336207014003368
6.74,-0.03653753588968869,-0.0023747819955964077,-0.2654043898855847
6.76,-0.03721103198190702,0.05701862671713342,-0.3164178851333727
6.78,-0.05278079774354425,0.08965703156829631,-0.06719996060233163
6.8,0.007354278900188353,0.0026078736315823066,-0.056929295397469874
6.82,0.0201350723233289,0.1210836381053926,0.43752713017638484
6.84,-0.10813521543155491,-0.03548967147019124,0.28747281313265477
6.86,0.06581075958344086,0.0360553626517957,0.3734775939740691
6.88,0.0044508776742176025,0.03176212826975001,0.5052097429328886
6.9,-0.02866231809701565,-0.01243061256347957,0.5536471861115972
6.92,0.01818314787293945,0.001914537277104539,1.154672240650624
6.94,0.032970906861007225,0.034614798270258526,1.3690691103962163
6.96,-0.030073461556937943,0.019302385264167176,1.4023730461023696
6.98,0.06100285877159195,0.034159139113642774,1.037039420289592
7.0,0.04714398994169205,0.056237676757871474,1.3348029365517473
7.0200000000000005,-0.08045522812289668,-0.010731267818700005,1.413850295004227
7.04,0.05417673746852169,-0.04617416794251787,1.7925854875809295
7.0600000000000005,-0.013906427732077684,0.044269366310356946,1.6727675401855193
7.08,0.06416712146100492,0.002683681404705336,1.6067211050554975
7.1000000000000005,0.03066216573730543,-0.0013687596734221301,1.0570250988733914
7.12,-0.0757366324879362,-0.05910589043359591,1.1435880952540962
7.140000000000001,0.007361850541464878,0.029530257667703765,0.9946214018967454
7.16,-0.03398009297442022,0.09348429478922565,0.1647884666965988
7.18,0.13471684135484358,-0.05279846984566255,0.26763830774981584
7.2,0.011296442288731156,0.10157350759357697,0.1772299398966652
7.22,0.018114239552974625,0.01783926653259155,0.12130776348664776
7.24,-0.012156680674929594,0.0019382296329321595,0.005528307450682612
7.26,-0.005173108510223557,0.026784766729283746,-0.7349211506357394
7.28,-0.06206097300784971,-0.06457672874542386,-0.4621254475808608
7.3,0.11191923055736695,0.10098305323795907,-0.2997077696364637
7.32,0.04417834355442729,0.05309161998946646,-0.510782070376646
7.34,-0.003857806239541104,-0.062174387625479256,-0.18065135207929173
7.36,-0.0013911879799888762,0.09432983843589285,-0.2617353905596852
7.38,-0.07098177784070425,0.009566045994890027,-0.23983163614245262
7.4,0.02808993217984317,0.08621220633720406,-0.6724777605938703
7.42,0.05305173100186115,0.0687457173852586,0.1600170384584554
7.44,-0.052608962227392364,-0.04060654149959574,0.1928116405314565
7.46,-0.016219609899116288,-0.050694308225059596,0.6155949213893916
7.48,0.046087978276179185,0.05295173971042412,0.09741979834328607
7.5,-0.015527789107306934,-0.028361100645206257,0.991676951316526
7.5200000000000005,-0.017414496839505612,0.05667392994015015,0.6976600758846662
7.54,0.08162750232041892,0.047219807343246496,1.4726692701091761
7.5600000000000005,-0.01481447158908855,-0.03414853578147881,1.314359854895497
7.58,0.027026845039546377,-0.12201216112900709,1.5337207536648323
7.6000000000000005,-0.051881466899435895,0.00554351946679464,1.419604654456405
7.62,-0.0029155063273538055,0.03272731950540106,1.4510360271921259
7.640000000000001,-0.10522936474859841,0.025606559071302704,1.5612761742996515
7.66,-0.018574755466545807,0.009251148824230263,1.2745810730875329
7.68,0.00745009936880987,0.03544622760130147,1.437058537684126
7.7,-0.000755532873923085,-0.00553964713204057,1.1612675156113945
7.72,0.030663423123158725,-0.044830844361515215,1.1496836314778924
7.74,-0.0823353194721578,0.0012249639937636945,0.9384632382568349
7.76,-0.03888361093145061,0.07629266557332814,0.7374477955140577
7.78,-0.0032634098058014318,0.052729981541587145,0.7408211099744235
7.8,-0.0863891175048033,0.037059406291598825,0.5118185718996968
7.82,-0.04075228088854713,-0.03616539320821285,-0.1037943372631907
7.84,0.0031539448606318164,-0.07486775408538841,0.09707086148440505
7.86,-0.02814026252775937,0.038061705602338604,-0.19493124995091807
7.88,0.014705372754201477,0.05615438488321187,-0.44458553180968946
7.9,0.03897832319550293,0.017062377679551665,-0.464195303936602
7.92,-0.006534523024028062,0.04265484868705825,-0.6778505675585779
7.94,-0.06476846764294907,0.058440477051978724,-0.774936132085525
7.96,-0.044645796787118074,0.06376399913800829,-0.47260007725281294
7.98,0.001561269197034346,0.05594404731659121,-0.16930959879684515
8.0,-0.015373805947158453,0.08078009426351053,-0.5130730200142232
8.02,0.03528622797590787,0.004480998348774862,-0.23914208232192852
8.040000000000001,-0.0060367162905552935,0.008342049755658382,0.21106312936685645
8.06,0.09763048837603107,-0.06816900678979375,0.10855738183384261
8.08,0.009504877057631967,0.009903880462017223,0.18442875656339952
8.1,0.04357535792662034,0.03840505000333796,0.5132317849213309
8.120000000000001,0.03860368421289649,-0.06046981782910265,0.6398427710148528
8.14,0.008847637719063262,0.017058749423792145,1.1832260099420124
8.16,0.10831174148925499,0.06007736191452911,0.752272592625254
8.18,0.05747319966870771,-0.007562303525168976,1.2436587003534827
8.2,-0.02184945592918965,-0.03765790080910811,1.2430862484613716
8.22,-0.0614327087682628,0.11913244454739635,1.488025113691592
8.24,-0.12098565089259508,-0.0034736141366352846,1.6255976207901994
8.26,-0.018449361263411977,0.04984287682481114,1.5196174969446954
8.28,-0.06191336144298129,-0.05438161941317587,1.3121234429596897
8.3,-0.04581327557729991,-0.04386904972264074,1.257229724471834
8.32,0.009338062155694755,-0.0496002177549957,1.5330202435776528
8.34,0.0999677296313426,0.03664158971224859,1.247993168467671
8.36,0.016891582911219196,0.035063702930078426,1.1842324109410518
8.38,0.010668442534009224,0.0367222224592514,0.9344411759213127
8.4,-0.026580445841193907,-0.00035601462798236976,0.8124883398065686
8.42,-0.053249157638397306,-0.05320439793747705,0.6295790744098149
8.44,-0.039410634489731505,0.052505695465825244,0.3811316620635798
8.46,-0.0048671071253816485,0.05209496891639679,0.3891518197200476
8.48,-0.01706502996965826,0.04760494242213171,0.26391711487538294
8.5,-0.04460715394273037,-0.07371353704721882,-0.5265834753679435
8.52,0.051044518948802145,0.07584138925396504,-0.21891177934571887
8.540000000000001,0.017339518646223344,-0.004067228672813389,-0.23684699010010707
8.56,-0.0637478344593897,-0.09037095493582414,-0.9617028511976791
8.58,0.038207327027674556,0.04869614142840217,-0.298098195798452
8.6,-0.0557794630911015,-0.006802657080592445,-0.6116825598005564
8.620000000000001,-0.027970738396172614,-0.0070777652356953675,-0.3575400788526757
8.64,0.04258101839480294,0.015702473265743862,-0.01954393897710488
8.66,-0.09969641572785576,0.03854101775102047,-0.10368135185217825
8.68,-0.010374212971801133,-0.05322721913190634,-0.4564802840700755
8.700000000000001,0.011198217963451634,-0.01601375558242794,0.49112905086267833
8.72,0.014977236527794011,-0.015415258021222504,0.3143028050576668
8.74,-0.02545394531682973,-0.026512684005199114,0.29489680107056593
8.76,0.05688326403117316,0.02054615403828429,0.747872543913451
8.78,0.04143771348651025,-0.005640658498481886,1.1724738371590053
8.8,-0.04975726281186827,0.05085861699860994,1.093037892701191
8.82,0.07200382741506466,-0.11304471804612913,1.3936001684351627
8.84,-0.0386620926329726,-0.04112978975213852,1.5147496711600585
8.86,0.08288161178482154,-0.0014941067007872033,1.5401420722928543
8.88,-0.07694611637096788,0.04448832940575972,1.3110042674312028
8.9,0.03757474807778796,-0.04327395360987299,1.7106602313977919
8.92,-0.07906734690821332,0.052373102894542514,1.3715748537909889
8.94,-0.06555415896112304,-0.10083962710375012,1.247301298255381
8.96,0.0242931590952421,0.026229289411328228,1.4394336795090101
8.98,-0.0323857266645906,-0.0007759982944811854,1.3649086981566003
9.0,-0.012414569978742688,-0.051458011882200776,1.1749774471240966
9.02,0.019731785966680418,-0.07713919592088783,0.9762915241767811
9.040000000000001,0.10438781888459409,0.002700504172503362,0.16904854393156865
9.06,0.019151342846895805,0.03336557389101175,0.5007712377367852
9.08,0.05369490043433557,0.00202014708559633,0.17602049448074022
9.1,0.008559048231843678,0.09194490055204108,-0.05601782308853845
9.120000000000001,0.014059199950103952,-0.013107409243692606,0.21170931175708319
9.14,0.03634594155249774,0.05194174189217099,-0.12711789412053515
9.16,0.07261568146701657,0.0977968326319487,-0.17296277787244246
9.18,-0.04686737751249352,-0.0347005742144161,-0.3360077391756247
9.200000000000001,0.05348499486359139,0.11515426781759219,-0.4775177144819944
9.22,0.04174765476890508,0.1266949466316495,-0.4963604771599572
9.24,0.10079500940884814,-0.062494968318016375,-0.5120276985437288
9.26,0.04669706093122922,0.03001670998236032,-0.47466781217290366
9.28,-0.05814722162117243,-0.08232958276699737,-0.10308437916056147
9.3,0.0032127964196573644,0.0764715919880995,0.31634821079279507
9.32,-0.011528486120718518,0.019771559873617242,0.34111131299612707
9.34,0.014914813547175812,0.013523846833662659,0.7395681697826082
9.36,-0.10537761055178002,-0.025958387226692605,0.6838156520171527
9.38,0.032478489539982024,0.021382530246665667,0.3745794072571739
9.4,-0.012851538215911352,0.008353505125671389,0.40293157860996165
9.42,0.0016409264734078524,0.02799732700930124,0.9953857765984144
9.44,-0.03835125977492531,0.02066045190956358,1.62974777643997
9.46,-0.05120888649344854,0.040158516364868106,1.3870035594192545
9.48,-0.045056833022452336,-0.06289057931538565,1.6436856573484993
9.5,-0.03881701038578636,0.04282109477068209,1.3304576405423651
9.52,-0.026742741839502395,0.006580758510963052,1.6626503131019028
9.540000000000001,0.001009502320447424,-0.0429084978042408,1.5907976158876784
9.56,0.05696465435038284,0.013776660800747366,1.350117336259191
9.58,-0.020223210287808352,-0.11850311369965211,1.434749220959846
9.6,0.009749885767328199,-0.002880455167780958,1.2126523704107672
9.620000000000001,0.045945157376561505,0.038909317407157445,1.308362912241534
9.64,0.012095853906310872,-0.05176157744164503,0.7177730156123032
9.66,-0.06354539790142276,-0.0810367560019763,0.7627683566553378
9.68,0.022170093979054884,-0.015783121527297366,-0.2311015734395715
9.700000000000001,0.009607810123577311,-0.08153068752909795,0.2599996394143377
9.72,0.02491032050479049,0.07296840465096682,0.0015240511013356302
9.74,-0.020635453466731807,0.005624403839809218,-0.2777386474498905
9.76,0.002649320469032142,0.07314067917294213,-0.6818200560260577
9.78,0.13191035324545627,-0.017003473975529777,-0.4886165621813999
9.8,-0.006439939662507089,-0.0033470821005073086,-0.19277334063398793
9.82,0.03953218221028263,-0.0267691621859323,-0.5907376290124454
9.84,0.13471893281100814,0.009127139826355414,-0.08639360856119727
9.86,0.0638838187404263,-0.045049864485830725,-0.5717819396794647
9.88,-0.04895276405711745,-0.04295160138563184,-0.5625088438237906
9.9,-0.002731219652688563,-0.09228598223069964,-0.3864237705112256
9.92,-0.06990125010697569,0.05681554224566185,-0.2731442177442973
9.94,0.013938466697781166,-0.059270539078918306,0.3658688611070682
9.96,0.08213238657724142,-0.0693924192018403,0.44516541096263085
9.98,0.0074923105446425345,0.06250794477197492,0.448103388203492
10.0,-0.11280594745068984,-0.011067806540011113,1.0161805097492325
10.02,-0.01318860296314648,-0.056193144235049446,0.9384103584470082
10.040000000000001,0.04309571608816948,0.007801872739018719,1.1618735441480326
10.06,0.07451140695650729,0.03199764439698368,0.9764390144657698
10.08,0.01617126743217932,-0.08493889008787306,1.118809717945984
10.1,0.051037509207427306,0.10313776558300869,1.2989412944918053
10.120000000000001,-0.017148210112808045,0.029513008888452492,0.9933336658387804
10.14,0.015365364965181217,0.03271512181302629,1.3144483902887152
10.16,0.006295711677305674,-0.03462446370301206,1.559488243215737
10.18,0.006769026816072186,0.03972056725555618,1.529753669180384
10.200000000000001,-0.04844894618439176,0.003350238562307078,1.6837241546790978
10.22,0.0041828045927919475,-0.06329854624436769,1.2535177939450337
10.24,0.09387968192674578,0.049799069387789274,0.6554191598484516
10.26,0.04867393443198978,0.004113574513648053,0.8590028203667343
10.28,-0.008659231659374815,0.027959552315137633,0.2993593175538841
10.3,0.04495311658508841,-0.030015725903471232,0.1450708163434991
10.32,0.03092320948264314,-0.05272936310361692,-0.07562562156354563
10.34,0.04322685238793177,0.015499130718683023,0.18553915298253906
10.36,0.023191847001038685,0.022307165995046282,-0.09442660456254282
10.38,0.01791443899993351,-0.02842177827455385,-0.5568686955090205
10.4,0.014317096153569403,0.031025605219752662,-0.534013783392385
10.42,-0.01739381946251893,0.043854990335772295,-0.22039363634325537
10.44,0.04134822929892574,-0.029197778888023974,-0.2145070939232671
10.46,0.0223339770959573,-0.017215033055650527,-0.4744276078835001
10.48,0.00272064243318529,-0.026185196470837738,-0.5476424360823058
10.5,-0.013093977281240093,0.06701761651977421,-0.3249024677396238
10.52,0.005823181675817379,0.01790237090960493,-0.19426498079456633
10.540000000000001,0.040811748131485165,-0.03624169090017703,-0.08302000992317986
10.56,-0.09901901240206634,-0.04366452935754434,0.057250008417574286
10.58,0.11470391742709465,-0.03082308944877339,0.3599550529663388
10.6,0.00337476856812652,-0.001767498020687676,0.48440104166282105
10.620000000000001,0.04104653313376335,-0.04699153980098439,0.4652242503025121
10.64,0.06917931574309316,0.02550967651573584,0.7585258878330126
10.66,0.08626578332719376,0.002065663754920681,1.3846664095607863
10.68,0.023405719124252503,-0.02609845490690778,1.1203035862040258
10.700000000000001,-0.06273696190706006,-0.020966440632585653,1.32179055197644
10.72,-0.025808755834037175,0.05022477502778271,1.3421433882292626
10.74,-0.06373056087302774,-0.05972006682810688,1.6259369868094926
10.76,-0.06711072108820529,-0.04119355494254972,1.5091717706229644
10.78,0.03093468365327643,-0.04036968686517523,1.0753449665790766
10.8,-0.02749977611763332,-0.005168005000721454,1.6641357743197434
10.82,0.01054991585887537,-0.014619852373639233,1.482892572843706
10.84,-0.06844526923044944,0.0869022401020475,0.9980212708574222
10.86,-0.01477247166085034,0.03864810241662214,1.161488976191665
10.88,0.09727612576055249,0.07594621630541182,0.8978135673338067
10.9,-0.09775936720358243,0.030022933297356266,0.9022231552742509
10.92,0.0664159511930722,0.014655608835331582,0.4265204629441303
10.94,0.08312360891905922,0.04849544204738747,0.31672912690211946
10.96,-0.06718171758952678,0.03332817399973949,0.34571422502572907
10.98,0.08721716444094474,-0.07752580911771292,0.0010824792783117043
11.0,-0.03916119020652595,0.09221004990206323,0.3900858963576985
11.02,0.002034968627832492,-0.007881375367661437,-0.5329386489982788
11.040000000000001,-0.08666473818340062,0.07708798911788534,-0.447274567051978
11.06,-0.030843361894018557,-0.056003329713624685,-0.6273213359060865
11.08,-0.05392061723320814,0.011302779606365696,-0.6025342046728286
11.1,-0.0355489524938463,0.03160308899351002,-0.7609439041058261
11.120000000000001,-0.023801724898008938,0.04904104537257732,-0.24230880593338522
11.14,0.011392111064863542,-0.0026760579435297052,-0.5821227941067073
11.16,0.03216799230876229,0.017265808467972005,-0.18175930468634577
11.18,-0.06799480995223471,0.016311375545067234,-0.17873880344401075
11.200000000000001,-0.04130818394004565,0.03890282972856058,0.19038966922699602
11.22,-0.008037509434874548,-0.027131307131820093,0.3597669047854696
11.24,-0.057282733736356034,0.06534706510947873,0.829924743656157
11.26,-0.012791860165401315,0.003042717952212346,1.0095914326165905
11.28,-0.07546657657813406,0.011357491557090331,1.1595976511816022
11.3,-0.07055682972958759,0.038546452611546995,0.9147986616862323
11.32,-0.05823826700848766,-0.005566796341163958,1.1881638302074387
11.34,0.012834102846257318,-0.01315217356105996,1.2848573791111433
11.36,-0.059203495875269775,0.03030020099969944,1.518804967163653
11.38,-0.1084912387925666,0.019084159573284857,1.5729947557761041
11.4,0.04961739082194986,0.10327929891309102,1.692824001994322
11.42,0.013557841672424454,0.027783387879772317,1.4043499231194823
11.44,-0.07684339407647317,-0.010192001027180313,1.3828773293606234
11.46,-0.05392461514306264,0.01160051989528515,1.1752090006331823
11.48,-0.00820313104924392,-0.03497225294239167,1.223046679621398
11.5,-0.0046637791451023,-0.043516893519853814,0.6840357048986291
11.52,0.04584825543060409,-0.07493556543321848,0.6285297683876044
11.540000000000001,0.008058104789984366,-0.05328934180064331,0.22427972135510776
11.56,-0.029180233884051596,0.004731747213753914,0.3466966028891974
11.58,0.01961272536295232,-0.03222251609136769,0.2941239335144434
11.6,-0.04821602787155238,0.07715169000438747,-0.011803078609367003
11.620000000000001,0.019588597008481937,0.05945955024505796,-0.2540292057411673
11.64,0.09829497381249493,-0.04816083284384884,-0.5598655233451123
11.66,0.003918370895904031,0.10738429107160158,-0.3441580118535752
11.68,0.038928967061023785,0.012013648022329328,-0.2978244548225966
11.700000000000001,0.009919964812712307,0.02096393854727435,-0.45158068044943744
11.72,-0.00474751133383522,-0.017655387851257483,-0.5609383891756705
11.74,-0.033721896783787855,-0.02859655860276053,-0.26930896529264825
11.76,0.0676387666609689,0.029417837336016547,-0.2972005988353161
11.78,-0.07787865794632333,-0.013072585782922598,0.06929093132073633
11.8,0.041994315752048324,0.0008694079623203946,-0.291733467258461
11.82,0.08054339557720248,0.10368580644933356,0.16913361934804894
11.84,0.015532172018297206,-0.06469967644684323,0.47795334661149946
11.86,-0.05281531143014351,0.005246494458214073,0.5884256799902496
11.88,0.04110326755685605,-0.06443528922609114,0.9147994410765866
11.9,0.04776242116047173,0.005456509117059385,0.968525537653163
11.92,0.03653172582691552,-0.028738985358909182,1.2405482118335875
11.94,0.07002092969218222,0.03543945060435498,1.2415740801634247
11.96,0.008720882347895908,-0.0028016990013549287,1.3091525391768388
11.98,0.02158214669149401,-0.043524361961837704,1.2066511199584518
12.0,0.02108903311120079,0.03967038302689904,1.5071113131912952
12.02,-0.026056261410390153,-0.02458848553189704,1.3141091111406593
12.040000000000001,-0.03911256223380335,-0.043088596595324824,1.3725276728271685
12.06,0.020797473913152193,0.018412030971266865,1.7499316462741477
12.08,-0.04708014881753064,-0.01411688994684244,1.3463135021835833
12.1,0.0015655183633850973,0.09189079445625292,1.410615209900166
12.120000000000001,-0.020970953576128562,-0.000526360475295694,0.9642387478600386
12.14,0.05587267809562202,0.02523734453452154,1.1005643825793041
12.16,-0.003271686452363476,0.04171160632186688,0.5418097543562954
12.18,-0.02106767208328239,-0.012487873826423175,0.2018753423585015
12.200000000000001,-0.06677883613185776,0.033205710058556374,0.28259245069311834
12.22,-0.10055613168711693,-0.01828136316611804,-0.07365293746149532
12.24,-0.03684839189734698,0.06951361517651138,-0.03891856815183781
12.26,0.08278947353727673,-0.039284091641249616,-0.6056136617257293
12.280000000000001,-0.10047820980514043,-0.019300038766843608,-0.5065610243719132
12.3,-0.020317561942646306,-0.09086856210014745,-0.42012135022810904
12.32,0.1543761890265487,-0.007474980027334284,-0.11720245301816934
12.34,0.057438129400262085,-0.031690592463424774,-0.50808237345413
12.36,-0.05414378055647228,-0.0456715921964305,-0.5393702843204529
12.38,0.03530103697121289,0.030763822348379447,-0.06973293809265213
12.4,-0.07080266138413661,-0.028770868390156214,-0.5319174504948756
12.42,0.02455293512825721,0.012805967560157212,-0.06469426510832171
12.44,0.08256462966999438,0.029724990082985753,-0.10017908115046234
12.46,0.02663594118665823,-0.06529647637450263,0.22216879381615395
12.48,-0.027477349954053605,-0.046975700380555034,0.7067699969729385
12.5,0.0401163444914935,-0.0113190987774561,0.6568590074148644
12.52,0.024215206195823735,-0.04831580642451802,1.324459126099873
12.540000000000001,-0.06144215440551139,-0.04064873287612481,1.1665287487705496
12.56,-0.07611584478565414,-0.043074668064508555,1.0986225305511916
12.58,-0.01972410986126495,-0.043295992819065925,1.521587204938532
12.6,-0.0045018279398199084,-0.023922042126193425,1.46511683857547
12.620000000000001,0.07393653348019529,-0.06398726347853552,1.4439268730158399
12.64,-0.02895183728430156,0.012632011983255706,1.6038292091459856
12.66,0.01625046117819706,-0.14603784842686382,1.3760551940017773
12.68,0.008156112893787757,0.06425673991882665,1.351317535316327
12.700000000000001,0.0003254425600733405,0.10593115387699961,1.3430754356676646
12.72,-0.055024210030204516,0.029077943862808826,1.2943823527546083
12.74,-0.03832365025924236,-0.027365498992556598,1.349222201354456
12.76,0.05482750075659126,-0.07391290100621949,0.9002347760343872
12.780000000000001,0.003936959787736269,0.13644552655394132,0.6048037707819948
12.8,0.010581940941314205,0.00041293527557904837,0.3251524004568848
12.82,-0.019403709189699234,0.02561049914316765,0.2853984297721953
12.84,0.0008049915144246746,-0.004558704874157716,0.0374703425062139
12.86,0.003748292270933035,0.01698396595573852,-0.1216015404346964
12.88,0.0790973391377885,0.05774576421008026,-0.38063613803159363
12.9,-0.051634610280824056,-0.04419551379034964,-0.08278559109235739
12.92,0.08927634431146474,0.04161289975745384,-0.6519347235710543
12.94,0.030307971615075868,0.002387942407271774,-0.5361879012303634
12.96,-0.09423435169660499,-0.08531499337978524,-0.5246032992927001
12.98,-0.040473533594922444,-0.00983391593011537,-0.4986174901075215
13.0,-0.04156681583911368,0.0494323516745562,-0.7262048659102718
13.02,0.039065763597994664,0.02937325462584809,-0.09048057179183297
13.040000000000001,-0.0992371164311164,0.04590256291286224,-0.34688860211101347
13.06,0.051659778890759844,-0.05826567385102982,0.3303280648577101
13.08,0.003706679065219252,0.05872163482227084,0.16338274383793677
13.1,-0.0567400753049491,-0.06302309781237932,0.5145813658735199
13.120000000000001,-0.027534838157822168,-0.02178879153504117,0.6466542382618186
13.14,-0.06888697479792993,-0.08009478606063088,0.9939498897215704
13.16,0.08692859414675808,0.06584542583208951,0.7402444139749963
13.18,0.005221940208664396,0.0885287279620015,1.1160940824041115
13.200000000000001,-0.02183118494363855,-0.03898041213057272,1.286124626674097
13.22,-0.009551839631893044,0.023588958736809634,1.4034010652882478
13.24,0.025634232870377773,0.013690240088372658,1.5590281224745435
13.26,0.07840753278540352,-0.05451377034980098,1.5883294447938237
13.280000000000001,-0.03507061890005963,0.015902722351058985,1.646768304253782
13.3,-0.0020005374379098713,0.015301270947085433,1.359891202280751
13.32,-0.04040287029428785,0.05734141684420843,1.2309403403305526
13.34,0.03096406418154096,-0.005112001241396302,1.0635280101144766
13.36,-0.0038376902251235096,0.00790193173149282,1.3112833355106897
13.38,-0.07883454921579902,0.06143662207800676,0.8123354135501493
13.4,-0.05083122272066411,0.029143698060272494,0.4812286589913216
13.42,0.09073440093871771,-0.01001825602329321,0.35589732294697013
13.44,0.025677115390324485,-0.019794390315188842,0.09937346498368815
13.46,0.008274835608602286,0.03472040825837199,0.036565722639131784
13.48,-0.014279234238409298,-0.0202136281440887,0.09172422648726364
13.5,-0.08473616496597691,-0.05928950038618613,-0.6676792569235306
13.52,-0.00785547736706195,0.016838350857742806,-0.3986816681260674
13.540000000000001,-0.018090302592187846,0.055346280291655926,-0.5617995081473617
13.56,0.018767185081608156,-0.028847837728837807,-0.5393544722365912
13.58,0.04437826791301347,0.004734879799711369,-0.6628418538425402
13.6,0.06573353298195206,-0.027641428726918806,-0.7761872914346428
13.620000000000001,0.06804258921250486,0.08453495035184562,-0.3265227200190765
13.64,-0.05140151965268234,0.07929178876442777,-0.2031662814504721
13.66,0.014309828496112183,0.08784092266101638,-0.11825976483050821
13.68,-0.07355057572688396,-0.016414923905533996,0.1855876635669954
13.700000000000001,-0.01419278546074288,0.02176743971512644,0.12053783846767305
13.72,0.09964917705785603,0.07715330402671183,0.18180913578255617
13.74,-0.03898940345230377,-0.10102178925960029,0.5084378552055457
13.76,0.11130890469695337,-0.015556318859762705,0.81463022271767
13.780000000000001,-0.01872093392878603,0.06865564001734813,1.0224566629062353
13.8,0.006055548896176347,0.008275629013865159,1.1632006472706178
13.82,-0.022474502597655016,0.06655650366732173,1.249660360754212
13.84,-0.010053124214227303,-0.06778622006942438,1.3122974094861501
13.86,0.013746642821394567,-0.06633776231124992,1.5683843003932276
13.88,-0.006099440008169287,0.0013681683246597564,1.4605323322664558
13.9,-0.055205828883768696,0.07064060839309654,1.7093902593600834
13.92,0.0016280789027846455,0.009098208688085453,1.480813275289752
13.94,-0.01321501802657635,-0.06198166619980544,1.2439315083492983
13.96,0.013652804514263622,-0.04163746665159549,1.319841312380044
13.98,-0.005348456921370958,-0.05804805408723505,0.9960304187652028
14.0,0.014541637112054915,0.03346442708713841,1.0327658287784705
14.02,0.00030603449793959706,-0.03154715380304612,0.5499781468943242
14.040000000000001,0.004512182371029158,-0.03389818876817412,0.32181218285148144
14.06,-0.022025555726671475,-0.028854567077953103,0.5775291352526901
14.08,-0.021747439473731082,0.007066212840013117,0.2860432217380595
14.1,-0.03142848719315198,0.004926463976017721,-0.4676907716612967
14.120000000000001,0.09163024709415163,0.04625471722602478,-0.11249093615151251
14.14,-0.02343128580316979,0.013689083631609662,-0.20276889843150084
14.16,0.007541554595871629,-0.04004445726585451,-0.3079031999963751
14.18,0.02005026829653803,-0.004669330923463587,-0.47307135337743067
14.200000000000001,-0.008479524287977012,-0.040190754068919754,-0.520092203709148
14.22,0.010955147263877613,0.06863533663841019,-0.24268382420421925
14.24,0.038245747647243436,-0.03840047812308033,-0.3072183406106397
14.26,-0.008131079624679401,0.010132316102915574,-0.4897105006929421
14.280000000000001,0.024729127017775885,-0.0552458369525278,-0.31920162453280204
14.3,0.03877782384086069,0.023787722430945277,-0.258231935428617
14.32,-0.05320818294356411,-0.004793902279002016,0.31193172556515725
14.34,-0.025667067790147144,-0.04154800903575301,0.1785826112092796
14.36,0.007312297634414915,0.00973772159748152,0.8188385038672223
14.38,0.03398054879324088,-0.02412433900858191,0.6332716990866634
14.4,0.005575082261073568,0.02335525963415157,0.8470780350955215
14.42,0.05651247888768262,-0.012154355364472473,0.9091404904623787
14.44,0.006570806749246052,-0.006733186789744031,1.4915178745912974
14.46,0.10114603029368503,-0.019489283385144447,1.3469562817374972
14.48,0.02876552183148697,0.023895351014807928,1.4379035535294424
14.5,-0.04637661496606408,0.04441737525044325,1.3953698494086548
14.52,0.03790593907116376,0.024406683632729544,1.8064219108162467
14.540000000000001,0.04404532943414888,0.03327268345756056,1.3828390874524505
14.56,-0.04147360896298413,-0.193603573433486,1.516114901239487
14.58,-0.03697049659735616,-0.050506403689116325,1.1629060243864013
14.6,-0.0499556896270166,0.029068014615297812,1.2339780271247867
14.620000000000001,0.039105962309924656,0.04882414477727965,0.7069718257289905
14.64,0.048390657787519414,-0.015345649008173454,1.2061762418553454
14.66,-0.013305275235698048,-0.011571991511724805,0.6109733589416492
14.68,-0.0537314765563106,-0.06008172987032732,0.19967840213946036
14.700000000000001,0.05752256679418371,0.09310460403214876,0.13419636619013584
14.72,-0.018963020360678123,0.07819307575198428,-0.06559925886499676
14.74,-0.06417255886850792,0.0009569447837913224,-0.1426623182845933
14.76,0.006296451910140208,-0.013742936615777855,-0.20563546840657365
14.780000000000001,0.04722572918018327,0.014446934431478473,-0.42655684613842215
14.8,-0.029032163558286535,-0.05490063761164557,-0.6813046570326761
14.82,0.008581524791646944,0.04253409299947432,-0.17278372734423791
14.84,0.06905131813478056,0.038796817869906984,-0.46337669833097467
14.86,-0.0019331522966635256,-0.09221648634421604,-0.16451035210454135
14.88,0.07375789603706115,0.05561001373844533,-0.27890178712209435
14.9,-0.02099548536152762,-0.004896417216826215,-0.21914993718363618
14.92,-0.02570646701621056,-0.07967880440708361,-0.23946347965880144
14.94,0.039743803563756175,-0.01966327432021517,0.36797309845762033
14.96,0.050080661422217024,0.00939419737092984,0.5459527044681278
14.98,-0.018196630575082178,0.009518700660563118,0.40411077625064096
15.0,0.02358209845421963,0.07884662208992102,0.6005529285568603
15.02,0.023716903558113567,-0.027809281086758394,1.2012300453993738
15.040000000000001,-0.0203154956092776,-0.013526093869104711,1.273363149779159
15.06,0.049446232560774225,0.017648010152563547,0.7438316229445643
15.08,-0.027953874671657275,0.09897762736536572,1.3348847398143824
15.1,0.03884391694792522,-0.0070278586556409605,1.4345252640710286
15.120000000000001,-0.022955281001743634,0.017363988184563067,1.3346019521165553
15.14,-0.022358153712885256,0.007605791106881692,1.4123531834341023
15.16,-0.11293610067233979,0.0448383245430231,1.5941797003363072
15.18,-0.035862809361595936,-0.011823341382846643,1.6602571977076654
15.200000000000001,-0.07017749047077552,0.027935850362167294,1.1977782645991961
15.22,-0.08651812745012882,0.015762768175807844,1.0524001827962282
15.24,-0.024278858363064926,0.026930661839398462,1.0209554098912539
15.26,-0.06936255713752511,-0.005391398344427807,1.1856624090467311
15.280000000000001,0.02483216109436811,0.05949862211238954,0.5553893833357332
15.3,0.00012977387700141815,-0.002585294706464526,0.5579043572899504
15.32,0.023461998332884145,-0.08055678782141562,0.23220156939031514
15.34,-0.07766344681017551,0.06245320218076688,-0.06347350241210188
15.36,-0.0033636248922049375,-0.05982558821181266,0.007542447444602335
15.38,-0.028527475363712064,-0.0693579879400784,-0.2539112201402636
15.4,-0.053853623727213695,0.037372784334713444,-0.6234163769604395
15.42,-0.0811888156231525,0.01077906163977646,-0.44909721895671617
15.44,-0.0035237804394822637,-0.013188279853416527,-0.7429884503609521
15.46,-0.07569486327520009,0.047222323925812264,-0.33307004487671
15.48,0.021633755944716785,0.0013120604969462605,-0.47066459918745107
15.5,0.05701839962823624,0.01973847159733327,-0.19136857939974236
15.52,-0.06906436003142848,-0.05817546062791323,-0.5567298184873283
15.540000000000001,0.02077675942156683,-0.06490970526098813,0.32152521687038665
15.56,0.024393137736598833,0.006605619682075768,0.10318431317252272
15.58,0.02919914484646388,0.10214409523306023,0.3699061423805653
15.6,-0.007828069181143447,-0.022293271397311694,0.3538266244609733
15.620000000000001,0.039438600591026884,0.08547814528834723,0.9763911617574978
15.64,-0.00370287400386638,-0.02503891901634758,0.7708627467151852
15.66,-0.04715722377821255,-0.030857294783528885,1.1416456002880975
15.68,0.05849631352224402,0.057748237042576846,1.2366203749466287
15.700000000000001,0.011115901737559011,0.031306165043614484,1.414197237900658
15.72,0.057359008681433614,-0.0037209218697597762,1.406398598494532
15.74,0.04859956592855087,-0.05383356788013625,1.2889006374273022
15.76,-0.08554756936211048,0.024906549496254506,0.9681254341526623
15.780000000000001,-0.040555017176144764,0.008654278440040734,1.4849568884693964
15.8,0.018850177189260253,0.007905386368816842,1.305166656041614
15.82,0.01333869992282589,0.06611139690534691,1.1163169721100976
15.84,0.03560643527314971,-0.03361576897586375,1.6126525761968353
15.860000000000001,0.07597388474583149,-0.018743475134222684,1.392906681364364
15.88,-0.011962388963502423,0.0013470390289741405,0.5753474770637432
15.9,-0.01790887198583713,0.06505593956677352,0.8467173077153167
15.92,-0.041087393642668175,-0.0011864563954717803,0.2870429280311549
15.94,-0.015512752803840452,-0.04537004358618172,0.22312451974592615
15.96,-0.039821458109591236,0.04511281169918457,-0.0795483187542427
15.98,-0.06018120709812304,-0.0021709456751780017,-0.3232989468067388
16.0,0.10420511646620688,0.06821544605262003,-0.05016852357309676
16.02,0.014395361025955126,0.03901536612892234,-0.1272914770769457
16.04,-0.06458971999055711,0.03145108493187573,-0.42266596107674426
16.06,0.07861392919075097,-0.014317937633289557,-0.5470234372704154
16.080000000000002,0.02303381042646334,-0.07689260758287945,-0.32868012267288427
16.1,-0.03971384406170329,-0.017439872323292197,-0.347591266832153
16.12,0.06443166534516016,0.06572104893440191,-0.6181320125820147
16.14,-0.04285931282734606,0.017493699555213484,-0.09805933141363249
16.16,0.03611226724073401,-0.013287667054906386,-0.10387253662142257
16.18,-0.06692718584378009,-0.005076344839170513,-0.15920882387743052
16.2,0.04223188547276491,-0.041720227035928835,0.32987662400772444
16.22,0.017054360993854486,0.02955801896808595,0.31633363540964893
16.240000000000002,-0.06172099236261637,-0.047749557249711284,0.3387082535279937
16.26,0.08541365411506646,-0.02449890572897139,0.8433234319066122
16.28,-0.04791754037052967,0.057325884054845136,1.0137583074566712
16.3,-0.04072902649359359,0.0036108360609086385,1.5847347192485017
16.32,-0.053171974566987225,0.05560424048602339,1.1538801308519795
16.34,0.022993803013261416,0.05870634218065113,1.1301878608182143
16.36,-0.0912979540646583,-0.030009648402934793,1.709359996937647
16.38,-0.06743934397975082,-0.11124542851675293,1.7572876733508145
16.4,-0.0008770922681033418,-0.01191306473885073,1.9044680532498979
16.42,-0.048598626300338094,-0.04088751297589224,1.2485570227800522
16.44,-0.03401674538672194,0.009231612420699706,1.5206759177898683
16.46,-0.019210471505693508,-0.035641426051345924,1.1129908221864093
16.48,-0.009835563552054127,-0.08083462668649899,1.2552968399566888
16.5,-0.0650179243386086,-0.04933911871678525,0.6989639780133844
16.52,0.03965280612781191,0.03683516884413291,0.7286461463097829
16.54,-0.03427706722606907,-0.045011153433231865,0.5806360063672092
16.56,-0.004016830965823131,0.02906926433762875,0.4020393871793026
16.580000000000002,0.022587491918134896,0.047689688830602234,-0.05105824436988349
16.6,-0.011476472241981834,0.020136718857430864,0.10351889822647989
16.62,0.08113671511197368,-0.002374692497647532,-0.26692588834196257
16.64,0.07172902908697877,-0.017038620365288182,-0.32466588092862075
16.66,0.01766785215477323,0.0402522041394871,-0.669626096896773
16.68,0.03703059377891621,-0.029424577120167,-0.10207325352102448
16.7,0.060164430866219545,-0.08031130596616558,-0.6038005123632378
16.72,0.0349222888798599,-0.055293292298935676,-0.3293260452741713
16.740000000000002,-0.007337736150699831,0.013083924233300032,-0.27141263653498837
16.76,0.016707064779615945,0.0028258994836466225,0.10382759330179814
16.78,-0.04345884189849475,0.030225629954057354,-0.4616876646166223
16.8,-0.000826842788795193,-0.0150997241211178,0.25852784041401744
16.82,0.056133698287896494,0.01575504724341093,0.13609978030963685
16.84,-0.03504432766940778,-0.027726570862578816,0.456578632671038
16.86,-0.027544303449895377,0.0507541689369164,0.9810259880249339
16.88,-0.031879739263728106,0.014498604976756322,0.48876246169527643
16.9,0.09224614624629425,0.02013029315132967,0.6119737222645651
16.92,-0.10473007691516097,-0.03114520080763917,1.1586902223767834
16.94,0.04127295328242045,-0.023929394436452936,1.6507945143618916
16.96,0.07973456398126179,0.021697587376299225,1.221026026799235
16.98,0.0038856165715088088,-0.046757603418767106,1.4216767476544563
17.0,0.03977496053823724,-0.035337371876453215,1.8747510381199621
17.02,-0.10055666069943246,-0.08973059781338955,1.299059458684686
17.04,0.02106824411641379,0.10137509960175367,1.5817146291491455
17.06,-0.03242757235619791,0.01745592825570832,1.5761653447939095
17.080000000000002,-0.045512736026217665,0.044363008727886455,1.0137745449055326
17.1,0.051117946402091864,0.03511651139725926,1.0370961166958994
17.12,-0.11599707363293495,-0.04845135957643058,1.109147659241793
17.14,-0.003987323709288895,0.06744285489779714,0.799759249891657
17.16,0.07340719705966946,0.048809590049141954,0.69174227556572
17.18,-0.08186192377129406,0.00014179434752469516,0.6013120999888564
17.2,-0.010834276609398319,0.04527166175822314,0.19486936735555782
17.22,-0.09539547606771838,-0.008006676958241294,0.21527156117878243
17.240000000000002,-0.0053178832416665755,-0.0037862881411000146,-0.046821745497146544
17.26,-0.012357557173724627,0.0013845515657485777,-0.2029193329883251
17.28,0.021700983047419534,0.004706159681997895,-0.3738877752276967
17.3,0.015229964378885304,0.08394670266969795,-0.5866714025245803
17.32,-0.02923916168822487,0.025641748661470728,-0.4461226297783278
17.34,-0.0389441174881072,-0.08585953223225556,-0.2765894411856576
17.36,-0.009552190732853162,0.05953919313778682,-0.42079834553631
17.38,0.037668937625290715,-0.03395916102229051,-0.7082766237447291
17.400000000000002,-0.00877305642759727,-0.07934066581226447,-0.7430202219236147
17.42,0.14461518705546914,0.08726783858398553,0.007350083734970175
17.44,-0.01835222912595964,-0.06624236500265931,0.3896197142544305
17.46,-0.08548895187907925,-0.05531417408549573,0.03972671189523802
17.48,-0.0010410793500391245,0.013519631693540432,0.771978993890791
17.5,-0.03324736547993332,-0.03800722300435889,0.6288393875754161
17.52,-0.06525155334962097,-0.031088754421951637,0.8668151354641531
17.54,0.05954084110277509,0.03628319052706554,0.875743038191374
17.56,0.024697213341600754,-0.032248818922621963,0.7862290142783158
17.580000000000002,0.008659844569088596,-0.05985154049093016,1.0633769151702577
17.6,0.13151377873458572,-0.012150032784826889,1.091454168665739
17.62,-0.05792284418865012,-0.11135094101650017,1.4443571445038597
17.64,0.0635727593282772,0.05410260902563316,1.3729940163150842
17.66,0.014250396960266198,0.011288891301674032,1.4877669860106248
17.68,-0.07952637029984908,-0.04044289024798459,1.6518568710142882
17.7,-0.0635440969182842,-0.0532568358907316,1.4742530337341462
17.72,-0.02710983729172174,0.014494239059602588,1.0510419174377599
17.740000000000002,0.01911247282492301,-0.02393174501672568,1.1491864499529718
17.76,0.0017706766943149006,-0.07742690067263962,0.8566611217598735
17.78,-0.08318193967383906,0.05819091453269914,0.6835683651274165
17.8,-0.04604833547306267,-0.07127896810603707,0.3949583518830664
17.82,0.031171337164884818,-0.05197468036869533,0.06728915668086605
17.84,-0.00020758245098487566,0.09048212956658915,0.06963454715213246
17.86,-0.029512280782591258,0.022302937789839855,-0.21801402187495705
17.88,-0.007879343644243182,0.05015623388614948,-0.43430521637034625
17.900000000000002,0.06596827556373065,0.006826995374531625,-0.08498293693297448
17.92,-0.048927168974803065,0.00018932925735194186,-0.4163874768292443
17.94,-0.04047704767799162,0.05513965365277582,-0.19814436234418603
17.96,-0.08098433560984424,0.040099179283076616,-0.7320637118258473
17.98,-0.02676796287790489,0.044018276291901165,-0.22064854877876156
18.0,-0.02872779539540858,-0.012718561675766616,-0.4661373771251294
18.02,0.017938135619940055,-0.03629645167083039,-0.04531867752081298
18.04,0.04392839760491969,0.01077498694550997,-0.22948364420162576
18.06,-0.04786019425119771,-0.03695945862207283,-0.2543575241962724
18.080000000000002,0.02079176286483288,-0.0024234956088806554,0.27856813959272525
18.1,-0.0344809498983446,0.007105976367210891,0.12273782584333542
18.12,0.003027503713848037,-0.02774918248891783,0.5744377624953767
18.14,0.09961929540441966,0.0519634034952684,0.7400570370291855
18.16,0.02425275180044264,-0.09226089489011513,1.120557874202118
18.18,0.000676955143201984,-0.002115515680161184,1.1685830273574827
18.2,0.05033531590567989,0.0038002193395992655,1.350029244157219
18.22,-0.09960297332518932,0.07776940408172324,1.3605021945471052
18.240000000000002,0.05404419447651157,-0.09642338555690788,1.5660449075931593
18.26,0.1535132132419639,-0.09330734242333244,1.4342821204879286
18.28,-0.0297525710467937,0.06279938321694314,1.726375456543872
18.3,0.06976719508992431,-0.10591384483816041,1.5386820586107335
18.32,-0.03008657164312232,0.060956655493614315,1.2149008143512505
18.34,-0.010854646573534014,-0.010338438733374807,1.0675228954172584
18.36,-0.10645289216361933,0.0603603797236281,0.5242589824564898
18.38,-0.12604938263837337,-0.021834586568142578,0.981702021732562
18.400000000000002,-0.0360630932117018,0.033675276242965145,0.8181584226100215
18.42,0.0010255960408483162,-0.05219038805915273,0.8062971225663955
18.44,0.06516159951165335,-0.02730717067560409,0.26681509446145657
18.46,-0.051247994510739706,-0.018838840978101574,0.3610152666241424
18.48,-0.05080005396150944,0.024399803299597983,-0.19682484545020767
18.5,-0.013848120658421718,0.08975254288141561,-0.43081670614603296
18.52,0.07808881797504527,-0.04262598971332112,-0.2542663917396192
18.54,0.0507763227828083,0.012126459856775563,-0.6128450634302761
18.56,-0.06032582610492002,-0.048264222057933015,-0.6626176715714529
18.580000000000002,-0.03463381291335376,-0.040599717118082135,-0.5820055043286253
18.6,0.011881990993272683,0.061959583202368884,-0.7429808873036305
18.62,-0.016043621744753527,-0.027624412168662044,-0.49955287698401535
18.64,0.06571115620446423,-0.043178692917199134,-0.06470915931103033
18.66,0.056845952562597835,0.020140251739661257,-0.27624216466683027
18.68,0.03314162571338412,0.01876722935235334,-0.02101579769342777
18.7,-0.03271137635388494,-0.027180946903239706,0.39300188546507686
18.72,0.1323169263839238,-0.06286054890614154,0.38455735070268227
18.740000000000002,-0.013097589659903076,-0.056955470164737454,0.34545803692695626
18.76,0.08013330612011421,0.0326386893392515,0.855864360420778
18.78,-0.010817915898699753,0.051434286592178594,0.7822708104489605
18.8,0.08159799318746647,-0.0100356303216464,1.027615122525412
18.82,-0.055835329063865846,0.024401099229010525,1.2158778607816325
18.84,-0.08764747720023698,0.01899467463922878,1.1801593451082428
18.86,-0.007623229588632135,-0.024065773661704235,1.3345086666822847
18.88,0.016077471768744175,-0.023906217750515227,1.3441954656364588
18.900000000000002,-0.06001501219550318,-0.04677894295246289,1.51091329412549
18.92,-0.01564001214650377,0.05387080403680378,1.5635162188256335
18.94,-0.010426385936774325,0.12604103427166607,1.1042861322703545
18.96,0.07354564608965682,0.037589306670052586,1.4850473847265206
18.98,0.031610992416551624,-0.06480329560275704,1.2764944088090615
19.0,0.02921694758814533,0.061320228975829116,1.3876533341137902
19.02,0.004091267509984457,0.032229125523523895,0.8170953119441335
19.04,-0.03255039691095631,-0.004143760233791428,0.5305859346266332
19.06,-0.07780486272109667,0.04520784471033265,0.3238099905733889
19.080000000000002,-0.03576903941347674,0.03211538334329573,0.2590765569028072
19.1,-0.07784575187008716,0.01020584452772149,0.061621382653170395
19.12,-0.009309262021522588,-0.02028298884526704,-0.06977510570149889
19.14,0.013449501002346771,-0.04453736427348458,-0.38325256382844713
19.16,-0.00894355576068782,-0.004500015833225807,-0.40967271947224226
19.18,0.06986183946028647,0.1099761845131001,-0.47609923735213716
19.2,-0.01394211726788486,0.04752713233147194,-0.6520479564561009
19.22,-0.026352696273916565,0.03722217544494519,-0.5043895356139728
19.240000000000002,-0.08170263204386774,0.0518073903991679,-0.5576555677501378
19.26,0.004311678088330855,-0.0700439339866937,-0.3825935694825623
19.28,-0.009701205273898856,0.030745351175506048,-0.30397239212858446
19.3,-0.026966705264243402,-0.024865180041624024,0.20048676244627842
19.32,0.029928205809405573,-0.016401461899551405,0.2913160736115554
19.34,0.06846330962548375,-0.1003206481781751,0.33644161356639873
19.36,0.009177226551593786,-0.0008757908037823228,0.48540618612740594
19.38,-0.017365705162599984,-0.0006925018488588671,0.8165078492267926
19.400000000000002,-0.03147423475550931,0.013087569580839974,1.1464291396787767
19.42,0.07708835833451455,0.03165295968686574,1.1721849188026017
19.44,-0.044157622148943136,0.03548242688772472,1.4387798291889333
19.46,-0.03186332371553806,0.03957468601423822,1.1675238747842638
19.48,-0.015626008026991572,0.10786039544406555,1.5503411426473348
19.5,-0.05614955647767553,0.021673027753468577,1.4746518793626373
19.52,-0.015798503495388895,0.044960827743569055,1.430816316726073
19.54,0.008180647180181447,0.10928048618114682,1.3660089373296815
19.56,0.03671559445973608,0.014031981089599015,1.5389226826826055
19.580000000000002,-0.04680151164947455,-0.001951960808168141,1.470426634561311
19.6,-0.0031244429954476564,-0.051691475797768394,1.0545865809138772
19.62,-0.037207634903123316,-0.059058316975626246,1.2297329895073648
19.64,-0.08758602706835648,-0.004190633040132708,0.859094293527134
19.66,0.07359713442401691,-0.05925019854778927,0.5090404064258971
19.68,0.02827110437779153,0.0422778860728692,0.472121510335288
19.7,0.0558836061066828,0.044822404587450126,0.003368766315585303
19.72,-0.09242287268043442,0.004121273254907183,-0.2487027041260136
19.740000000000002,-0.001231796186962436,-0.04822996189444623,-0.37679097851790366
19.76,0.07759055211426702,0.0025966735312884263,-0.43509205073736157
19.78,0.045634452432749495,-0.0074935140933296675,-0.3697080411612798
19.8,0.027458740538704857,0.09525875917101993,-0.5703679678078502
19.82,-0.019675030127922034,-0.08461124762802208,-0.8255226410455139
19.84,-0.07809991428906203,-0.023872148546757267,-0.3542904543449056
19.86,-0.02644479344689975,-0.024605237288624557,-0.5798408137398705
19.88,0.05050961267585762,-0.014510737815861475,-0.4390241833142231
19.900000000000002,0.05839417961007096,0.05569064780430401,-0.3930564411655605
19.92,0.02551412056524744,0.07875681032798862,0.005152665125917222
19.94,0.06537581646857692,0.013136907398794407,0.2493367444385085
19.96,0.02861292780992246,-0.03488150041204776,0.03072675995463886
19.98,-0.033391877686036235,0.028666865748452477,0.7621523744785446
20.0,-0.016152110295370205,-0.006081047393704599,0.8936460623952518
20.02,0.045428083821109494,0.030538530008329085,0.8396929852559663
20.04,-0.048594946933023714,0.0248367252629766,0.9820067418359908
20.06,0.015822778130509037,0.012097596139000693,1.378989619002174
20.080000000000002,-0.025844673170080663,0.08615072524844955,1.6582155943692318
20.1,0.01884155589411667,-0.0011695067966125444,1.1821632517095293
20.12,-0.039882036269899626,0.08137324867800586,1.3978262416997818
20.14,-0.007809657582348623,0.06311040755037901,1.3495853750115436
20.16,-0.028529276665821175,0.0023224179490064513,1.1665139740973676
20.18,0.08350507380741962,0.08768180479578583,1.4105289586167926
20.2,-0.07405841967656629,-0.012958084009486562,1.449370360437892
20.22,0.001128123964694639,-0.00043695448382237347,1.1950366546439077
20.240000000000002,-0.06028517124511106,0.05419473103055892,1.1581945161914133
20.26,0.005397427514463333,0.05245793348697279,0.44602400136894826
20.28,-0.07573889717960315,0.009127931577375473,0.7551558248995318
20.3,0.024405119083118165,0.02776182190164649,0.6480825774497674
20.32,-0.11865438514924143,-0.06255513496308883,0.09738902012307588
20.34,-0.15084943093426628,0.05483504233721148,0.10302490752825814
20.36,-0.0574796522150057,0.0867707961710276,-0.07552046598319215
20.38,-0.005888211366293398,0.08181890702977293,-0.23745214625810476
20.400000000000002,0.05006019235228122,0.05918077550598692,-0.01892822626519447
20.42,0.007137503588199584,-0.04226689244252607,-0.6507309726390081
20.44,0.027941934853377787,-0.026964431137182207,-0.37657110741525535
20.46,0.010789474380834295,-0.0757829811593828,-0.30853442774477924
20.48,-0.025360430470686653,0.03302482891875431,-0.056590596238655366
20.5,-0.05802879574423763,-0.0077131545476718305,-0.34252091055306855
20.52,0.07703380043656641,0.006871726017653216,-0.35968557160970066
20.54,0.02988585543423869,0.04079753902319169,0.11724844769418219
20.56,-0.029912300914472265,0.07293497000950942,-0.06553397156990345
20.580000000000002,0.0574780707572133,0.028112061126174998,0.1659667313718717
20.6,0.0686216154144856,0.06380264197575142,0.4578009393917981
20.62,0.016980413902404522,-0.016898510916106953,1.090696044259913
20.64,0.09290775518279495,-0.05379380674356785,1.073489891248883
20.66,0.051143071304105094,-0.04266080347719189,0.913678111621912
20.68,-0.05623960254127877,-0.05560287666412245,1.116726739738161
20.7,0.02250635458609959,-0.008274736735274624,1.517215205040083
20.72,-0.051487749551586484,0.02485438340683166,1.2287815534375301
20.740000000000002,0.029096911017992555,0.022577913483444574,1.535437149350337
20.76,-0.03463435840024887,0.002772593912007265,1.4147687546783734
20.78,0.05951525585615221,0.006965623500443022,1.3511893725894892
20.8,-0.04246634815896717,-0.02462286786406702,1.6405530149714997
20.82,-0.025110017732712587,-0.0007869301390267709,0.9812237574216569
20.84,0.02981034203948689,-0.011635230508812475,1.3025414708788015
20.86,-0.03130729840229181,0.00235527907584924,0.8807627627142204
20.88,-0.003843886247809686,-0.0035586630524194643,1.1682005481356121
20.900000000000002,0.036324207412143775,-0.018442103747341853,0.9905224091520122
20.92,-0.01257785600305656,-0.08604723794363907,0.41435311106619477
20.94,0.10961297451658739,-2.049928161461003e-05,0.17578589960999466
20.96,-0.02911923813438466,-0.03645436346609599,0.19186609080594785
20.98,0.005242120670507205,0.0805061845768838,-0.04639785264663506
21.0,0.020989578303344816,-0.043611450112800786,-0.384008383408297
21.02,-0.07768617460181476,-0.059419115445978624,-0.37404092680013723
21.04,0.0056377537226855986,0.003893251410362163,-0.39824193892107734
21.06,-0.014023400727925076,-0.049713210818071195,-0.6472679516135327
21.080000000000002,0.02428218794870301,-0.1413481623008477,-0.48221712473419226
21.1,-0.029921477070237335,-0.11393623860612999,-0.4087868096133476
21.12,0.11274555568559388,-0.01494725076230877,-0.11129750831073415
21.14,0.035924805285814716,-0.023549497125991817,-0.3159318459087397
21.16,0.022781173981637797,-0.008824323832656921,0.13130235838802362
21.18,0.07458031726368906,-0.08419394882891844,-0.2696180494246047
21.2,0.022232157705806336,0.07661798412482006,-0.0225003139911584
21.22,0.0745440167035664,0.020054191170362494,0.9059323902766154
21.240000000000002,0.06722059674450215,0.006540610599246744,0.7808774427397016
21.26,-0.0017382954537144939,0.03029131671688161,1.0634896958836226
21.28,0.001808211333846244,0.011483449146119734,0.7643513130600907
21.3,0.051500343310684794,-0.014340518096185069,1.3206212007361982
21.32,0.0019946177875214514,0.05420899970220459,1.0099218082791073
21.34,-0.00418256916072902,-0.0025843741208038803,1.8199059284976946
21.36,-0.06955828291329232,-0.028440712109333202,1.6503512698540757
21.38,0.03293338918529595,-0.04806395717941875,1.7450106597381243
21.400000000000002,-0.026024421335168677,-0.09374722480181216,1.2891918971382021
21.42,0.02088565108046757,0.10163830281953956,1.4859098732958789
21.44,0.02392858108298853,-0.05947819778593347,1.1961069723649111
21.46,-0.0448925747628651,-0.05506851735463232,1.3807366141483801
21.48,-0.04760155167614473,0.013169635516255926,1.358225039168593
21.5,-0.042265950113435695,-0.008817074833718906,0.9686799504791593
21.52,-0.024787739991002658,0.017254748650504918,0.7655239708217387
21.54,0.06995101882149624,-0.02055426865749929,0.6314210681888663
21.56,0.004934398591495351,-0.02258264332090711,0.34059245459711945
21.580000000000002,0.03332206273177372,-0.06534279396400076,0.21975102846997105
21.6,-0.030085888431799365,-0.052188142830815604,-0.044365849946562605
21.62,-0.07866606964026605,-0.019451458462025513,-0.4428103427233998
21.64,0.02410348749548648,-0.01841601603236256,-0.17897975049321366
21.66,-0.034789721968819486,0.0068524711271401965,-0.49742488615852104
21.68,-0.0020298130730931796,0.054091363525677644,-0.6804861235906612
21.7,0.0006034842141458345,0.05599100094972212,-0.6457372868213229
21.72,-0.035663290661375545,0.10708762258475593,-0.4369325397420871
21.740000000000002,-0.024656549368629252,0.0877763221075492,-0.28095676973288297
21.76,-0.036751779622244185,0.069924717457526,-0.7770718127119718
21.78,-0.018862389063484156,-0.0463384357031888,-0.16146905199029465
21.8,0.07927952947146544,-0.09114116324617988,0.08012073400135236
21.82,0.042367252248486045,-0.017806346829649218,0.044535920958799116
21.84,0.027368664414979163,0.058750030296149724,0.24088502409147788
21.86,-0.016810721249994897,-0.049171628980992504,1.162625637092067
21.88,0.03102282745820847,-0.04819752038780434,0.686630638224774
21.900000000000002,-0.040977352490264816,-0.0013118017311334021,1.176002716557534
21.92,0.07827071172322538,0.043714814645423455,1.1543672875260902
21.94,0.033671825740348015,-0.0037547582289143323,0.9864201485065143
21.96,0.09689025120849687,-0.03294115787354922,1.4437025175811324
21.98,0.07974758063233456,0.041709008061534124,1.7323251374528221
22.0,0.0729012947678784,-0.012003603974836793,1.4968053465399003
22.02,-0.055050239374334786,-0.03953367056245661,1.3227248997306804
22.04,-0.07896072042294956,0.01340860748597722,1.486909538900885
22.06,0.019887857699625647,-0.037871005258573134,1.1520362412813263
22.080000000000002,-0.07766297829647484,0.056273456168986206,1.258957237190577
22.1,0.03964607210481956,0.01799805047665965,0.8797004064094613
22.12,-0.05600207399688726,-0.011023657737974223,0.9988524307538446
22.14,0.059016192915027556,-0.04960921102188933,0.7463416393205793
22.16,0.013668717312008923,-0.0748140986563262,0.49203948950350546
22.18,-0.05878586380518465,-0.005023192272120033,0.6217560226443533
22.2,-0.04014048663559057,0.009407988267589176,0.4781201556588837
22.22,0.02697500715224493,0.0549941897726112,-0.20812694195440276
22.240000000000002,0.024034117317104576,0.01662401044824302,-0.006349742017526583
22.26,0.002346076144563681,-0.04028155638409571,-0.08083300050708808
22.28,-0.06441707984840388,0.016984474131933675,-0.4091162094902529
22.3,-0.03592644915737824,0.0067508359962653725,-0.27035315014069294
22.32,-0.036860066628845244,-0.049640514183537265,-0.5534554568250617
22.34,0.03508573469895225,-0.030587277438810536,-0.48805636966959515
22.36,-0.012655577176436346,-0.005933413900939829,-0.11006848408681535
22.38,-0.02643775197428873,-0.011098034334578524,-0.9156481530679741
22.400000000000002,-0.0071366852273734155,0.05340916988874936,0.10218463804474626
22.42,0.0920919820447117,-0.029642780019125514,0.09404046531054003
22.44,0.06369063981731153,-0.0025403589021626176,0.6695883284988395
22.46,-0.009897700034847525,-0.052113515199991856,0.19785318950701536
22.48,-0.01836555998373972,-0.0604594339772431,0.5619123262450845
22.5,0.04814900845240968,-0.015711965828695027,0.6305208622984858
22.52,-0.033607341576549606,0.038557805448946936,0.7867714945212929
22.54,0.1195804506550775,-0.01777362661820926,0.9870619335845053
22.56,-0.014404130165746876,-0.006303074356129191,1.3974191855433746
22.580000000000002,-1.6151587263593777e-05,-0.0037976975911419076,1.4747160621891529
22.6,-0.06798627007609813,0.04545813090359952,1.3957635927373095
22.62,-0.05503639207776682,-0.008950369366431598,1.6330202837729968
22.64,0.008181693340196059,-0.008991586567015038,1.2382168696280849
22.66,0.08221866835292858,0.07435888481798832,1.229481269976368
22.68,0.05880080950749009,-0.0990960617228129,1.276088913720941
22.7,0.04849169215384653,-0.005331420981740563,0.9764513021189978
22.72,-0.016767137359792603,0.02366509339798538,1.230796955298487
22.740000000000002,-0.03067834242133709,-0.05136512307012118,0.9604074334768602
22.76,0.053041806153673265,-0.10599104718794013,0.679400943832986
22.78,0.009608428855031837,0.021650831841518513,0.6849105825118081
22.8,-0.005476656601144739,-0.002348922512028096,0.37854504660248717
22.82,-0.007073670218949619,0.0336619206734737,-0.019754203829230765
22.84,0.04787551811095367,-0.07351111381501467,-0.03668900869452876
22.86,0.08391607944049717,-0.0009798800463636714,0.08319453863961035
22.88,0.036372099814764594,-0.06969591661434366,-0.06997253585310062
22.900000000000002,0.006737748820725559,-0.001592121200732796,-0.5655901013095737
22.92,0.09071524158977068,-0.08280353878823264,-0.7061510922726498
22.94,-0.0008515241115108178,0.04325336724486822,-0.6046883326084143
22.96,-0.022770651664905644,0.015891133088463977,-0.5282770180031905
22.98,-0.060820682795270115,-0.08372656255237268,-0.6892922974005598
23.0,-0.03384290281550761,-0.10628674101740095,-0.41703146834259464
23.02,-0.06383397818301927,-0.0933107373882825,-0.14264715526861416
23.04,0.04712376615301,0.016250117616563392,-0.3230001959754509
23.06,0.06081455169103418,0.027679283639996652,-0.20813267417185471
23.080000000000002,0.067845188073874,0.013442276580905058,-0.10490144288990011
23.1,-0.07544715844311219,0.04294185697864977,0.36096180145152335
23.12,-0.007807612357634277,-0.04116542096239223,0.31314023837520955
23.14,0.033942962204389394,-0.018171343200739456,0.9184202568435775
23.16,0.05162923338382171,-0.040539694194462406,1.2032107677390798
23.18,-0.03442615055071012,0.01787995780759266,1.356539422418766
23.2,-0.043832244513009884,0.06168327848097695,1.3763986416332585
23.22,-0.04111239116988815,0.009747828965991547,1.3803077100355308
23.240000000000002,-0.000477550399231279,-0.08005970353551133,1.5016692656429929
23.26,0.02053224401630733,-0.016476640659885487,1.1651932003241026
23.28,-0.01144216870956457,0.02188404974509278,1.6478775871765916
23.3,0.02475707402998891,-0.021746856299252534,1.5045269129557708
23.32,0.04524973522922528,-0.057870051148531325,1.3384667235574585
23.34,0.04556221439755238,0.0034069245602584247,0.919210222847721
23.36,-0.1069545323548755,0.002139326173617435,1.1027060195967218
23.38,-0.02657302173476513,0.03757670251286309,1.042424682629112
23.400000000000002,-0.04627800060201272,-0.06580068288780298,0.7734637727090066
23.42,-0.03850800952094666,-0.007087228380460768,0.789861599602292
23.44,0.08472056222122909,0.06373523358631565,0.28659822504384286
23.46,0.09613455475796037,-0.01838963624756315,-0.10379140111564755
23.48,-0.00919182696883161,-0.04926402861674043,-0.30071704441242586
23.5,0.029939430823337672,-0.029016679103154436,-0.19024602578328148
23.52,-0.04352560889482621,-0.07051909225655283,-0.40098530008229766
23.54,0.013736893262530176,-0.04945197908402356,-0.6226613942505065
23.56,0.08384127620727085,0.10456835507598615,-0.4532095497546976
23.580000000000002,0.06989990704749811,-0.0565887673658144,-0.7011725453574611
23.6,0.004343385276822576,-0.020710987860755314,-0.19496433849985867
23.62,0.008995361749908032,0.0052595410098401916,-0.08529357464757487
23.64,0.015575917052493466,0.10118300367325644,-0.05906423626375071
23.66,0.0066847959112297205,-0.10449117721099409,0.04489773862508706
23.68,0.024299072645989093,0.04837611088328835,-0.1668262326266114
23.7,-0.028890880481031646,0.011343901497142154,0.041391626651875096
23.72,0.0765234510722674,0.03446515995987772,0.34439329925745304
23.740000000000002,-0.06207427959831063,-0.019868469266624788,0.35644885364376855
23.76,0.035719715272194426,-0.10059223445627681,0.8283629724706051
23.78,-0.042828870549248256,-0.06948958584681675,0.7213420907623762
23.8,0.03724335294754399,-0.06837868442013405,1.4161170713203657
23.82,0.04830968230244449,0.08991571217179088,0.8124545792719517
23.84,0.05715694163285945,-0.0517224547782249,1.3469832517461482
23.86,-0.052895492702132146,0.039280215013211404,1.3180203218049633
23.88,0.0521672634826629,-0.04637097268665688,1.599345824428276
23.900000000000002,-0.04369743876558878,0.00633699757834955,1.2240651465547265
23.92,0.056802733505239525,0.020178590565159124,1.1815533172686183
23.94,0.05123558824797875,-0.009121253025062033,1.521094769560367
23.96,0.041486615376565936,0.037207188787312544,1.0286137695631044
23.98,0.033865843771814924,0.02040460419139843,1.3401615280012371
24.0,0.011635480381897831,0.08812430192267691,0.8699564206832793
24.02,0.010064015311467936,-0.057446978719106014,0.703313452027358
24.04,-0.009490305469601522,-0.09437813750530151,0.5507560029497597
24.060000000000002,-0.13397298741780303,-0.03135860707672867,0.46323384350557234
24.080000000000002,-0.08565020094385126,0.05947984450458445,-0.05532738826664432
24.1,-0.03387270452677946,0.05132807003321713,-0.17615542658724723
24.12,0.07544763348550426,-0.07247671475342761,-0.5012504438932708
24.14,0.027883583766045356,-0.015028885887689159,-0.5962050423141452
24.16,-0.05611075197531319,0.0865291454495522,-0.1739401809690017
24.18,0.03549688408332258,0.0030122857958768076,-0.31194587204578184
24.2,-0.043073976421407645,0.1227491036752355,-0.8458645747225357
24.22,0.03850463008512562,-0.035991581600378596,-0.6334714015809307
24.240000000000002,0.051554822664181,0.11212227110078109,-0.6878382389899569
24.26,-0.04311637353928489,0.022410007347454037,-0.40646125570293884
24.28,-0.015646643590293233,0.032313783487638435,-0.15865809933426483
24.3,-0.052788244044471556,-0.05991516914261639,0.26311655264655104
24.32,-0.07989725226710223,0.011343831935434562,-0.04139815300211808
24.34,-0.01254311682152775,0.03974183229640985,0.09094806319785265
24.36,0.09157330574336868,-0.048793027312209185,0.5984418204340498
24.38,-0.010366698082692914,0.056621294178391283,0.800425961343584
24.400000000000002,-0.007979231429382288,-0.02890943911463528,0.7470898956881831
24.42,0.027177657575960624,-0.0009098241778371151,1.0434061354985542
24.44,-0.01977705370544297,-0.006183334637660301,0.9498262647872757
24.46,-0.041601743090906584,-0.013563929297297267,1.2198471138943399
24.48,-0.009837390735722505,-0.004304487564673187,1.5564449540545735
24.5,-0.1015690533952913,0.07181348359759135,1.547584627595213
24.52,-0.04104402641666248,-0.004951135624811913,1.78116434614617
24.54,0.02322989223347889,0.008878681776293793,1.2042648580240414
24.560000000000002,-0.06817989974789401,0.04240339835470086,1.3791876516928134
24.580000000000002,-0.020460345358562906,-0.04557899837638402,1.3430822052872715
24.6,0.05160256864267109,0.05405011972605816,1.179077320923232
24.62,-0.007863014943579837,-0.01613153094355486,0.8304567794030417
24.64,-0.04040474768283425,0.06990741865433006,0.8287498001549006
24.66,-0.041233600125827136,-0.020699240704282064,0.5504495493525522
24.68,0.07940809040992196,-0.06202175778776506,0.3981829449238412
24.7,-0.11081631127746326,-0.030500376844255703,0.08784947391688776
24.72,0.02370694352879362,0.010647833970155299,0.32691040394799953
24.740000000000002,0.046627141905317374,0.010265836388808675,-0.25917938292585874
24.76,-0.0430306489527173,0.07734197155541256,-0.2113190385766092
24.78,-0.11019687325703159,0.06165648732175251,0.02895592273091796
24.8,0.010842212922060716,0.00411655716704765,-0.618569972919786
24.82,0.030261134626216823,-0.01318555189198985,-0.4488626083928226
24.84,0.03970798766497102,-0.04796698617647574,-0.7024629453784585
24.86,-0.11159758673488077,-0.0154802297148246,-0.46784014248553574
24.88,0.06522055567640327,0.08565903228290533,-0.22988018145738875
24.900000000000002,-0.03056957408045874,-0.0053719792137354285,-0.2621149671520745
24.92,0.04323462010957173,0.09332640777566692,-0.15217244315241138
24.94,0.031633939966242725,0.033389589542012536,0.11618881150128146
24.96,0.0009741170739410499,0.035471114826122196,0.32611444269521395
24.98,-0.020445691002772503,0.016170548385562162,0.18155210724267756
25.0,0.020963582363809977,-0.0899211118082408,0.6983709950791952
25.02,-0.06567855374288688,-0.013713243891277524,0.7265440401424712
25.04,0.01412817942595632,-0.007347578118224448,0.9954737300222316
25.060000000000002,0.028637672794210506,0.02121898261667113,0.802179477391127
25.080000000000002,0.0570858108133311,-0.040792895315244146,1.0173403488160968
25.1,-0.010357218053480804,0.0040493800215943695,1.3900072815086526
25.12,0.018132861741996097,0.12035357736177743,1.6382221699477046
25.14,-0.026319675097032764,0.04741053387243246,1.0836375685860267
25.16,-0.053570498736669005,0.01012161676956453,1.714561454747726
25.18,0.14778504121672598,-0.016280066067146232,1.1637849082193632
25.2,0.0009013072979733871,0.009911263862983242,1.011874071768575
25.22,-0.028789312034037493,0.001278901587925984,1.4201861771455537
25.240000000000002,-0.06523812923426929,0.05773104778396615,0.9402546757176702
25.26,-0.04017897425236483,0.006977277677435449,0.5960301778438153
25.28,0.005255030839557118,-0.06791620299115488,0.5296612403522907
25.3,0.018832760740861362,-0.062060413073782496,0.49224346502428845
25.32,-0.06959533820647615,-0.04426119283743221,0.23157710059564102
25.34,-0.00288105003630422,0.03874465239125327,-0.10229564924467763
25.36,0.06588434859039011,-0.030822575509795055,-0.3963955781364068
25.38,-0.03531283560207832,-0.010474126038643833,-0.27146854741805204
25.400000000000002,-0.03207456984898032,0.024769735390564002,-0.21942232137476525
25.42,0.06489793295113146,0.04202780395957738,-0.5303962581258077
25.44,0.03118614840714645,-0.08561071564452269,-0.05897818264380128
25.46,-0.01812838585639439,0.03161008112393205,-0.8250004406419857
25.48,-0.06612211689778223,-0.1064856635633249,-0.42053834852118843
25.5,0.019581233641810525,-0.005238452547310171,-0.41470862898338845
25.52,0.0012665364554091793,0.004374129612824514,-0.33217793401966883
25.54,-0.0955147739583031,0.025704793547814322,-0.09622204185536112
25.560000000000002,-0.004369272940937922,-0.003954791476775503,0.035040294388620434
25.580000000000002,-0.05800405949132708,0.07720778007817686,0.43068083614859154
25.6,0.0023023650098013804,-0.0475438932877812,0.426609232858988
25.62,0.03512228282199675,-0.05229470335820899,0.6415773742384814
25.64,-0.01842435641079555,0.07705055966393985,0.5098625651108466
25.66,-0.12938344055879977,-0.039098527125802494,1.0577446184144763
25.68,0.001468891739935172,-0.012245328871949707,1.389910928707448
25.7,-0.08299738882625858,-0.07347999709427419,1.3346327090951673
25.72,-0.01462371919100184,-0.05157670260021933,0.9897073772870821
25.740000000000002,0.008812317923461946,-0.024591374332281445,1.2096129656848333
25.76,0.01059209345435664,-0.07298288395080677,1.4230794189338123
25.78,-0.0720676001828268,-0.006132844211797672,0.9930735419831132
25.8,0.03173625922500425,0.02632592358791921,1.2471378411459506
25.82,-0.02652637381737055,-0.03716066650800435,1.3429218954675124
25.84,0.017009912090654545,0.0018461156377658284,0.9311933167084573
25.86,-0.057064640428834204,0.012607123309880414,1.2554178459365162
25.88,-0.06306527785354034,-0.013634616408825503,0.8566901882903311
25.900000000000002,-0.06927162334569234,0.030200526788834142,0.44934870458116416
25.92,-0.02606447153798564,-0.03987585759088563,0.09350273165430267
25.94,-0.03432903772207726,0.020943459722045654,0.2829452960777791
25.96,-0.04686354469145241,-0.02588850622477964,0.03146275024262119
25.98,-0.004920166874900642,0.11422632671821448,-0.19418166492310307
26.0,0.1311739144260773,0.0458158775937557,0.07224684667885495
26.02,-0.06096504646114989,0.08240035848797882,-0.64156736043366
26.04,-0.0523850318354108,0.035873081292467454,-0.6258598556843857
26.060000000000002,-0.029920365048052528,0.03445796435591855,-0.6071853925798403
26.080000000000002,-0.001971219327967226,0.01054734858197184,-0.7144085798099494
26.1,-0.0029939345909055087,-0.01367622576031253,-0.5852139203054355
26.12,0.042348011382540005,-0.031847356630257444,-0.40659326089218883
26.14,0.008184077517860289,-0.036350429636050105,-0.09179639638591469
26.16,0.03369152875908162,-0.0018020086060650511,-0.28091554035069455
26.18,0.04367308747181198,-0.012035819274214949,0.3062095212071622
26.2,0.008342398328270037,0.003387398312342338,-0.28395902660034655
26.22,-0.03937675043291428,-0.027600922688043657,0.4375091068434639
26.240000000000002,0.0978755455754648,0.026357747643761628,0.8412155166656369
26.26,-0.061662715527169565,-0.05100348972178917,0.9568355166055224
26.28,0.027844836213478327,-0.08585930386558699,0.9656695809607514
26.3,-0.0024311139098432363,0.0876089584423769,1.4627823232232664
26.32,-0.056350669307577345,-0.06913653107502353,1.430770969319799
26.34,-0.0006115821110912534,0.011630125702984329,2.012162770706525
26.36,0.002516238978166062,-0.01608898751878234,1.5544720346833913
26.38,-0.015291737747294747,-0.05200557511199114,1.3088711690155364
26.400000000000002,-0.04603194951587433,-0.01133833794447918,1.115968667563721
26.42,-0.010657818714704236,0.04599972072399914,1.3150278364304784
26.44,0.01305939300125904,0.04036823106808243,1.0581541194788369
26.46,0.0021218258238156315,-0.03784416003269288,1.4036142673931569
26.48,0.025670027329500696,0.02988017120304237,0.9582678990805112
26.5,0.12747933460545288,0.02830404326972784,0.6635892129702143
26.52,0.0636941593528198,-0.009205463810637039,0.7255451721010577
26.54,0.06232852898043715,-0.05482482406515049,0.5282304369814649
26.560000000000002,-0.04835929659086764,-0.033956018148144244,0.6645878231701415
26.580000000000002,-0.015821002962954366,0.09985763937821385,0.1496619722323642
26.6,0.11070997501063971,0.049284756585185836,-0.07525130785169987
26.62,0.022585909398650086,0.003746074203138798,-0.142439092525126
26.64,-0.0042642376069046166,-0.09849319462651701,-0.43124684687591364
26.66,0.03828054584532211,-0.04571894947374655,-0.34558025012868093
26.68,-0.04092823833237695,0.004413594938962986,-0.1321490971152789
26.7,-0.004874802121183064,0.018028760573408367,-0.8559372151194057
26.72,0.06110740525493805,0.008806379459389132,-0.2640153055354725
26.740000000000002,-0.018107366235565216,-0.09426830236508438,-0.07758822695188489
26.76,0.02704592967097899,-0.0008080419015608228,0.02092664753278456
26.78,-0.00024363916038716918,-0.03955694495142037,-0.10201076992446821
26.8,-0.05610080647764039,0.030843587151610508,-0.082313044132024
26.82,0.01348087011821399,-0.007679346853978338,0.30570388698815454
26.84,-0.08069232582126587,-0.09980639147024079,0.6764073692708745
26.86,-0.02763987542394777,0.025718079999828204,0.69994574577613
26.88,0.05889718702486149,-0.035073640465690406,0.7885228869050004
26.900000000000002,0.07810172228428891,-0.04586523446301145,0.9509455874122783
26.92,0.004898208291708513,-0.010724693560868118,1.2066402437285375
26.94,0.04703952836024466,-0.04141256042598738,1.7278085262104173
26.96,-0.021338972406030915,-0.03891163234998134,1.027358184572116
26.98,-0.0016615339145166635,0.048619249895856545,1.4851007302897843
27.0,-0.029060319787352736,-0.018028015592405706,1.3813398586435988
27.02,0.06864522601840471,-0.029777913795803176,1.382674903120283
27.04,-0.033838040686420275,0.0945777828759891,1.80220101187884
27.060000000000002,0.010931371616074801,-0.04113764901095474,1.6993554148419527
27.080000000000002,0.04255701614726602,0.05662296179607904,1.0033766789374536
27.1,-0.07638109363969402,0.034462049991624936,0.8600980931635078
27.12,-0.03127979824593286,-0.0802120742710293,0.9460395727322606
27.14,-0.03179076953973585,0.0608701317252557,0.9431896967998825
27.16,-0.09311132544945895,-0.05569570974188953,0.8260628936558041
27.18,-0.06856921798120784,0.039366136079176606,0.6326514078183251
27.2,-0.01984736030905065,-0.05113829873030258,0.05836321550673278
27.22,-0.012930666478617993,-0.013185125815774119,0.4086663580954096
27.240000000000002,-0.0010849414765432184,0.007014103952558234,-0.1251775790648582
27.26,0.05857122498345771,0.11093594110142915,-0.18984585266941256
27.28,0.07004015248505027,-0.022188000699945105,-0.16048673305453404
27.3,0.0032636878590101663,-0.03739437811159702,-0.8907268502609056
27.32,-0.07094697035166463,-0.06113611367259944,-0.5567889880067517
27.34,0.02995838358403209,0.030252139214450097,-0.15199174033846452
27.36,-0.07228963607251891,0.10416045693450789,-0.6280738359973004
27.38,0.015161080742722516,-0.0481483238378073,-0.3276380459841743
27.400000000000002,-0.011246370892693182,0.011337956750781773,-0.561686751929479
27.42,0.00400360320372796,-0.05377470183022795,-0.2061927939291854
27.44,-0.0818247375922515,-0.034363235722056906,-0.04674455878923445
27.46,0.0411570268494854,-0.020684083362495217,0.14950692097573087
27.48,-0.06210268400845989,-0.031634629467153653,0.6796819704501257
27.5,-0.000556877673494447,-0.03201542309902374,0.6752474606123398
27.52,-0.01148264278224966,0.09473989950403959,1.096023515014433
27.54,0.1161481072888761,0.012095810787858763,1.0264813312680143
27.560000000000002,0.03857598793154992,0.02520680518647866,1.052047944422293
27.580000000000002,-0.02945464346400783,0.07600428302609798,1.6788198176070406
27.6,0.036813256316594364,-0.0037681696549499016,1.5862560354838258
27.62,0.07778715313609878,5.102430979511744e-05,0.93322564549665
27.64,0.010521564432129378,0.03904800348094556,1.1200363585579665
27.66,-0.0030513960593450233,0.0412104276652999,1.4993978203876996
27.68,-0.013073427129784283,0.022550059598065688,1.5148456632957727
27.7,-0.03076812306021658,-0.004673188836638883,1.2888802333209424
27.72,-0.053249607382091106,-0.04517626412420238,1.0215614025389848
27.740000000000002,0.06395772794413965,0.0022823130183212627,0.7262970343211443
27.76,0.030655730105686792,0.058294282725624785,0.8452028721226351
27.78,-0.026915957924030932,-0.10178537124783378,0.3990909111325719
27.8,0.018622582974668598,-0.03748695794324661,0.583724166537752
27.82,-0.040579230823640317,-0.061789094433702,0.08923587014898354
27.84,-0.03043255212638639,-0.03325618641964046,-0.26138075734535815
27.86,0.019093037150482862,0.020552469414446314,-0.39527080971181033
27.88,0.028269646065565326,0.13315412405474253,-0.7300022546508018
27.900000000000002,-0.0007708990655773368,0.018447684480083038,-0.5899361583464955
27.92,0.001956735473195467,0.09201881800675094,-0.5587067753006844
27.94,-0.04466846232134857,-0.021494374890941387,-0.31982532271227815
27.96,-0.045945188041879276,0.08729676546031312,-0.276816380688427
27.98,-0.06188651029291912,0.043171793003348995,-0.660682696076414
28.0,0.05353658402387597,0.065225894419477,-0.10851332946455955
28.02,0.0592588969921788,0.03394828068304248,-0.20904298872702842
28.04,0.020146876473286,0.07790010199084209,-0.27446763998054924
28.060000000000002,-0.04984068633544792,0.045845797499040705,0.17909695713908852
28.080000000000002,-0.006632618881272136,0.019570630906779074,0.5293656390616182
28.1,-0.0654759781729644,-0.054463393487085704,0.5905391493423058
28.12,0.030964991305540496,-0.03671290295119544,0.3550072792809494
28.14,-0.04051781852512542,0.010937530831740353,1.0697069098165468
28.16,-0.03161624307377499,0.06506257060841518,1.0555977901369016
28.18,0.04464229335473529,0.08242236462945901,0.933817896387886
28.2,-0.05725417748355022,-0.049249956537034456,1.1392948878349367
28.22,-0.07926679343582813,0.02247542071088095,1.2210916268744383
28.240000000000002,-0.00043301854281449904,0.06215084505801771,1.4529989509026655
28.26,-0.030954642160599555,0.14952580438870416,1.3614867955863137
28.28,0.00777749918014221,0.03120271658315703,1.5987463124494976
28.3,-0.037428708805589864,-0.05756112489016754,1.6490630180739279
28.32,0.010738730075248839,-0.03295184787466646,1.0782721571392373
28.34,0.015030518178508659,-0.014063052306729877,0.877677002650633
28.36,-0.025756599783528678,0.03276474911910401,1.1990236217077865
28.38,0.055836771770016835,-0.0184770847870129,0.6278261117657816
28.400000000000002,0.0010596121766053357,-0.04220925240316715,0.5902370286122856
28.42,0.05295000817848264,0.024205786892516068,0.2989186733167593
28.44,0.057323576632912945,-0.024664511793443034,0.11559478516011654
28.46,-0.0727518785462602,0.06807662764115813,0.02941690314337477
28.48,-0.032581417977057776,-0.014222036522427112,0.086722762676397
28.5,0.021191544693615616,0.004418938047356411,0.055737287781581046
28.52,0.02264513912843895,-0.001721148685811651,-0.49031234119252487
28.54,0.03321828808382754,0.03737320659548017,-0.9244978125577412
28.560000000000002,-0.007612548222643198,-0.053636149561449964,-0.3822431449607854
28.580000000000002,-0.02955449580808503,0.00865389344857721,-0.7692321759091854
28.6,-0.09165890933019749,-0.047136171427075574,-0.1091193794045654
28.62,0.01980606145319537,0.005061825144995934,0.07681934928266126
28.64,-0.07073486584981381,-0.006488838359263308,-0.6224045531930951
28.66,-0.03403637403352341,0.04416057690979715,-0.16592117151105928
28.68,-0.013308911313932012,0.09075815429093398,0.08722136348655164
28.7,-0.02005072608189329,0.019681292606860912,0.11369495745422867
28.72,0.06567590893732338,-0.0014943216373485384,0.17260800230393103
28.740000000000002,-0.030801749368493073,0.007833113269294631,0.4194368456469044
28.76,0.0053826981526060615,-0.03182561454939647,1.4348341434845568
28.78,0.04546203357006057,-0.012416292474307618,1.3012162750935494
28.8,-0.03512953286087856,-0.055875535603103946,1.2251091982069382
28.82,0.09195837334614182,0.011556780498841054,1.4507488701213238
28.84,-0.011835146356852474,0.0691136749131449,1.4280126778950515
28.86,-0.007618746305929006,-0.017786946954592382,1.3336204631861241
28.88,0.03829801190799013,0.044512153415010136,1.3235534435403258
28.900000000000002,-0.007356205359440613,0.007665049321416604,1.5895203292882512
28.92,-0.08992331123649266,-0.10456500043090607,1.3022537037829354
28.94,0.061419952731994076,-0.04273261126988109,1.351789374965345
28.96,-0.037581867276173145,0.0016605034870214538,1.2205561204469213
28.98,-0.028032862081865152,0.03732669965414901,1.407798972845912
29.0,-0.020073946383717754,0.09625631880955224,0.5720834080028544
29.02,-0.04000966772802881,-0.06464889188083099,0.4034108742291782
29.04,0.036483987922217624,0.07629735208528281,0.5735386764932927
29.060000000000002,-0.029869627974708005,-0.07265779965193461,0.5464693850705152
29.080000000000002,0.021939607593614824,0.07730263540395645,0.08636321727773927
29.1,-0.10474514076700905,-0.026025670249945534,0.17622105193715543
29.12,-0.013778015907260653,-0.011796392508706104,-0.08712839721561898
29.14,0.014840587731482495,-0.02080343327964021,-0.32912585098714703
29.16,-0.016434617886766246,0.04272300816611504,-0.4048055886141416
29.18,0.006835320280980498,0.09525585835248751,-0.5365075663593319
29.2,-0.024842658845751493,0.12382177198263267,-0.9240956081156999
29.22,-0.0018813965109665055,0.02475176173523685,-0.6031930336303197
29.240000000000002,0.02472214436769659,-0.07450398419131671,-0.22238709432045434
29.26,0.007642913912215685,0.03059751699876766,-0.5787976497643941
29.28,0.0332843922263761,0.05845938433207631,-0.46455939350139214
29.3,0.01209648131639723,0.032056126461249994,0.19335191704977955
29.32,0.08617830960112875,-0.01093682048738623,0.05288382874126779
29.34,-0.00035360723719028865,-0.01833897712449519,0.5942430666082283
29.36,0.06843661727533044,0.007997105661323058,0.6070077824774665
29.38,0.04118829467562924,0.01782754627187482,0.8846597730901473
29.400000000000002,0.08551394631279467,0.05281531937384898,0.9456056398508496
29.42,-0.02177233316323487,0.029799008530052396,1.178698692179819
29.44,0.023336941443156373,-0.014508164143461524,1.0582339379433325
29.46,-0.02407470590524688,0.01200753968505026,1.177385157865278
29.48,-0.004446627851505327,0.010800851468513985,1.1732777714054763
29.5,0.006156960901923082,0.04211407515213941,1.3325830978670279
29.52,-0.08352667662548605,-0.039028325385226166,1.7283232870193996
29.54,0.06031893202061966,-0.02333073954705445,1.2444371907118685
29.560000000000002,-0.002927193583585915,-0.06077725373755738,1.0344388017610215
29.580000000000002,0.06393367133179041,-0.060514279912316796,1.488069675497994
29.6,0.007193333725200257,0.001114601191389488,1.022604102687519
29.62,-0.02917346593149689,-0.02069319469667619,0.9380350383099127
29.64,0.039334114660192813,-0.01536343675662277,0.8630048409707283
29.66,0.055749518189699025,-0.0541336734957837,0.7851273788283948
29.68,0.011786237044418196,0.008240341391025042,0.27437649747292026
29.7,0.036672429295647284,-0.021414490118401644,0.16616267250842337
29.72,-0.037443944834224925,-0.01815171004244198,-0.11927461100119026
29.740000000000002,0.07610607832440469,0.10443788292421295,-0.24034871374153588
29.76,-0.02763255172585388,0.004980842522432204,-0.49722820816602975
29.78,0.0033850860798017683,0.05397030310081885,-0.5024892410133981
29.8,-0.03642920885330866,0.0108450556585563,-0.6307280803466643
29.82,-0.08685099753109575,0.0005960461503057511,-0.13616278706472607
29.84,0.023991126637931293,0.010190297046913249,-0.4235418258807144
29.86,0.0004784307373216326,0.028633812378963692,-0.27959260108937434
29.88,-0.01886592741650821,-0.026916545917609436,-0.3647758520564999
29.900000000000002,-0.04379321191778555,0.030352541585625187,-0.14403754698702204
29.92,-0.0382560213034135,-0.05932728237586006,-0.00759956131592629
29.94,-0.02573789127402795,0.015387819073299783,-0.18746558949197356
29.96,0.052298593276607144,-0.05032078914815871,0.3341578161656163
29.98,-0.03667198843149157,-0.017802667779582195,0.7109314537806051
30.0,-0.013728426997376048,0.022201704170653213,0.7069478859432582
30.02,0.043734403337795325,-0.07332127639790194,0.7862688584036313
30.04,-0.01606773524959191,0.009880856438690452,1.0931435234408935
30.060000000000002,0.019458235827294182,-0.013164391318197792,1.3807379239886544
30.080000000000002,-0.002657241733756188,0.058850562349596305,1.3490106513831763
30.1,0.02728415295937103,0.07840057744162583,1.2015127803280976
30.12,-0.05471723670453226,-0.018115817253482103,1.275555100657493
30.14,-0.0032871910550332293,-0.01790348265994691,1.40541944381368
30.16,-0.016116309098374682,-0.0010112695922446019,1.3314518946082756
30.18,0.04697289224163731,0.05407993452406469,1.4000653587992309
30.2,0.062365043442523575,-0.03379798962025034,1.2866608026784114
30.22,-0.02318805936085233,0.025155240229114164,1.283763105481345
30.240000000000002,-0.00044501734501323,-0.0451883507089714,1.094471226917735
30.26,-0.030943764085332948,-0.03311405003199728,0.5552011161127308
30.28,0.06393100139099776,-0.04385523513665688,0.4631166850630972
30.3,0.052572883112421476,-0.08610256488507431,0.6059280444580647
30.32,0.08192309748380672,-0.01701779018582651,0.03365955199286283
30.34,-0.05564076174348807,0.023554605985656105,0.06362868007079249
30.36,0.14168498426803278,0.018252081766828066,-0.7120994874095208
30.38,-0.07982935125243186,-0.006772383591301015,-0.4711854467353281
30.400000000000002,0.03348462712407404,-0.012034240904699695,-0.7419211769996847
30.42,-0.004292172076681165,-0.03812911725765881,-0.42468913464862446
30.44,0.07131423977537062,0.07329213231387383,-0.8880671102688592
30.46,0.03444997889900172,-0.07393751553341087,-0.4777782305607615
30.48,-0.024898431270825434,-0.018098470234695917,-0.6418664008635977
30.5,-0.11216203800056611,-0.08223496771463656,-0.26504060670355273
30.52,-0.027097616242654127,0.07171580980797193,-0.538470455655382
30.54,0.08615343102258959,-0.01280459974140194,0.14494851756403576
30.560000000000002,-0.024601226751894804,-0.010138160957832586,0.1714975741485082
30.580000000000002,0.07274029017212445,0.06443470232697494,0.4099354993024744
30.6,0.04731062619429223,-0.019493725015121074,0.5713148631822742
30.62,-0.048168731599858065,0.011872107212119535,0.7899131594772141
30.64,-0.007683889552711237,-0.017647027993627534,0.8970214207067501
30.66,0.02382250222718052,0.007387208005831621,1.121549802772287
30.68,-0.0004876828386052422,-0.02827499982738453,1.649408152322764
30.7,-0.07687293195346027,0.0037545428941636004,1.7817837583643459
30.72,0.012913030424948437,0.01701274216399488,1.0732429695630268
30.740000000000002,-0.003243004994316219,-0.08835726895685236,1.3797135684424522
30.76,-0.033601651775712456,-0.06713640032767725,1.4008185327622589
30.78,-0.055130550703476514,0.009479472313969015,1.4197485740214573
30.8,0.023101039235568867,-0.01505522205528939,1.2798509414111492
30.82,-0.05955799001348403,-0.02174325375525645,1.2796026528090914
30.84,-0.055007203732222336,0.06646826707524707,0.8586985610598428
30.86,0.0025849315651144135,-0.017398120980461642,1.0652558272294868
30.88,-0.019833723305834258,0.02833447858793931,0.5818971444180012
30.900000000000002,0.04261713658572032,-0.0448746312087339,0.6672770593139926
30.92,-0.03749190692084078,0.02027151376662599,0.3962287320924571
30.94,-0.025177151823761713,0.03832754102169592,0.15826586630805406
30.96,0.046683126418939534,-0.0738189265797183,0.20134855608493202
30.98,-0.017988658072098398,0.021176704158388196,0.36024984306695296
31.0,-0.03611018877673334,0.05499273831126618,-0.3069581218918818
31.02,0.043257501157119856,-0.017712977870885657,0.06136379091168609
31.04,-0.0047562781937356136,0.07522386154645888,-0.5710865073877753
31.060000000000002,0.04355432123559417,8.754091111672367e-05,-0.5476828419319564
31.080000000000002,-0.043775209285900354,0.07637159853332538,-0.45629007358668977
31.1,0.045901528380636075,-0.05690526622107681,-0.46570567735939067
31.12,-0.003682963336305054,-0.012674433125815954,-0.5163578570806733
31.14,-0.053178837830862816,0.029970954458885132,-0.49169462287081733
31.16,0.0008694197073482757,-0.08530203799845129,-0.14894636937824143
31.18,-0.02309458580267724,-0.06687158268513506,0.36635732565873225
31.2,-0.028351537443495334,0.06529736702303515,0.6294919750953285
31.220000000000002,-0.020896318016206457,-0.024053956233507312,0.16974053293905572
31.240000000000002,0.1564263440696452,-0.04732283862777394,0.39332365220224585
31.26,0.016670874542015258,-0.02078785234673421,1.0144911362501723
31.28,-0.01847961857888104,-0.0402408969090316,1.2556724955713416
31.3,-0.11507178905483975,0.030786466037322366,1.0006053612863193
31.32,-0.06973281225113752,0.04147718931547263,1.278922298775415
31.34,-0.03635808580725324,0.027973474637158387,1.5047865762042383
31.36,-0.03311052442215542,0.03943676930383145,1.290842878139773
31.38,0.04723922683849874,0.00575807070356833,1.7080775803141695
31.400000000000002,0.08921713013041797,0.0844676567552484,1.3765313912682868
31.42,0.007275832940316896,0.011934494074183295,1.7168381518324394
31.44,-0.05796054131796228,0.09232768650198118,0.9478901379147813
31.46,0.06845497349513278,0.027543851209022113,1.2649910076044844
31.48,-0.03240431723988006,-0.05467975028210679,1.305701050821302
31.5,0.05133379346000865,0.1306653279599542,0.8653287696065004
31.52,0.0029036181505565552,0.08798294776170075,0.9570897377228162
31.54,-0.04216117878356868,-0.04177710045015975,0.5387810878867897
31.560000000000002,-0.00859331746890927,-0.005860703709371898,0.3709571852077378
31.580000000000002,0.03211076765922804,0.07058488227382441,0.26278150140081746
31.6,0.06302479532389844,-0.024708368125031587,-0.2999830491885473
31.62,-0.11749256314133744,-0.018545109576796313,-0.12309483940973104
31.64,-0.03964179213667049,0.007671298328000186,-0.3042772973357394
31.66,0.014412245412401468,0.07593270812924081,-0.24030139773211556
31.68,0.04648029971026903,0.0022155565060005757,-0.742137999602333
31.7,0.019061098093745458,-0.008450684196803204,-0.7284592634577352
31.720000000000002,0.019701671813891663,0.06253981532137806,-0.6253889991586613
31.740000000000002,0.001431125311546406,-0.005130383850360257,-0.6662821745952279
31.76,-0.00045505656459630543,0.013360425057793468,-0.49510682532329287
31.78,-0.05335616614984378,-0.015069232227186303,0.171638992913151
31.8,-0.041138952697422335,-0.009827156832167318,0.04970807975745471
31.82,-0.03439968125798717,0.0013181837930761394,0.2904050267545693
31.84,-0.04068883798265063,-0.04902789349860644,0.12213233822743247
31.86,-0.01864941663799481,0.012151235763181247,0.6700466334134977
31.88,-0.10862380185960192,0.04281842944197121,0.9313078284961966
31.900000000000002,0.0850713812820812,0.003327961779899842,1.0548283492863928
31.92,0.015991129197758077,-0.02207169437272054,1.3714104282506623
31.94,-0.002555522835201331,-0.016175894023730073,1.290019718600971
31.96,-0.015346155866927034,0.05129713001690163,1.2959336431951511
31.98,-0.10643918619628615,-0.05094523949486168,1.4624587609732578
32.0,0.046312438453327893,0.028368085294782065,1.21013324679426
32.02,0.07055289748049014,-0.003574035039669868,1.183238299303165
32.04,0.019312459860173797,0.021943944388487208,1.6856746245818934
32.06,-0.09743232223920144,-0.008481233684340457,1.298303387993436
32.08,0.00269590121538697,0.0555395944967502,1.054065895161031
32.1,-0.009072261382024624,0.04549990682674347,1.1135926223146875
32.12,-0.023649092585595388,-0.035639800576565454,1.237325560087069
32.14,-0.019374531900087078,0.12870693723504237,0.7016379998064516
32.160000000000004,-0.010007702964318762,-0.10921709867266392,0.783462518605938
32.18,0.03541281894339863,0.02547019248795685,0.046365749726029026
32.2,-0.03431560655192033,-0.019208459354611993,-0.014128314232298295
32.22,-0.011324801308146245,0.008981037052780732,0.10344051668846854
32.24,0.09272651586486429,-0.05724878087957213,0.1924421125112259
32.26,-0.04734196315921423,0.03906626489196023,-0.239334352265395
32.28,0.03130424858139866,-0.02556723235387444,-0.7724372414431642
32.3,0.048412713295898246,0.04160163146829403,-0.6916303450141137
32.32,0.02477081114836273,-0.05150099179198947,-0.35990042965480584
32.34,-0.0293729944376573,0.09694450413088075,-0.5002486627299244
32.36,0.024555672149395795,-0.010104748136921277,-0.4777943494369691
32.38,-0.052294793590983026,-0.011314915416288335,-0.3197464185038023
32.4,0.08252650740339461,-0.002280066292903181,0.02153591200683283
32.42,0.019995661624123445,-0.0012955839910805394,-0.1588198260268805
32.44,0.0043551465036589,0.0673341068953086,0.08828280482497187
32.46,-0.05690849498178674,-0.0677657133516191,0.4519639245265148
32.480000000000004,0.01828851647794156,0.03985766073045844,0.6057669459484403
32.5,-0.026445128411248964,0.036218114199582915,0.5162322575417152
32.52,-0.005543086014037649,0.03913881008052862,0.7709602046327999
32.54,-0.0007606235495868825,0.04411417961367854,0.9322119906362523
32.56,-0.06802630134464834,-0.008504774118419104,1.4127260969446018
32.58,-0.009142462436566435,-0.02487280547180228,1.3266241038222066
32.6,-0.022684036363328657,-0.03531034256239791,1.8301642932555624
32.62,0.042157159882321646,-0.02865034207368643,1.4739303279177787
32.64,-0.032903064306676916,0.01702698552256765,0.9907389071024812
32.660000000000004,-0.08821218241578617,0.05991735170500742,1.5541073964805554
32.68,0.046622950270856806,0.04432722009226185,1.2777227288467832
32.7,-0.002514806547895273,-0.05339643284152216,1.0954805840379707
32.72,-0.021491874390422546,0.001103818342435955,1.0283565068275242
32.74,-0.02519556169551094,0.009947854904823325,0.9421996915450672
32.76,-0.07738639720062204,-0.036907031989265586,0.6379620351929196
32.78,-0.04351068961964903,0.045766074494831305,0.8557667763796769
32.8,0.02912462522309402,-0.06193710464196703,0.4602799844022924
32.82,0.01925365323326982,0.03367225332181225,0.744363513716858
32.84,-0.039186550453549455,-0.00510052803745581,0.23331867773043963
32.86,-0.016135591930113224,0.0443380387531143,-0.23882081724133952
32.88,-0.01665355090369427,0.0011445649824448952,-0.3157308907279176
32.9,0.021431257578416595,-0.04488561599761504,-0.6033106994316668
32.92,-0.044032318577218836,-0.010395933477988414,-0.7117256515965025
32.94,0.022479606015344576,-0.1260849224426873,-0.5918740136336746
32.96,0.08151540026306342,-0.06129453414624323,-0.3809229842268834
32.980000000000004,-0.06214353377730602,0.005132637140975393,-0.5315127742254424
33.0,-0.1041756759022863,-0.016731105067662688,-0.5943235542464375
33.02,0.0549100201784907,0.0004295856249203686,-0.23987532417539267
33.04,-0.047849583329431344,0.03212826219796346,-0.0755993156843924
33.06,-0.03282425659034784,0.0001497505583960818,0.20116793717242973
33.08,0.008321674354249747,0.0033077362018539367,0.3011497381460574
33.1,-0.014157352529382628,0.07928025550174685,0.40929433592866293
33.12,0.08231664623440897,-0.002477425414147105,0.762960545335335
33.14,-0.0276225069650837,-0.018132090853844495,0.5647052735257696
33.160000000000004,-0.003462461559709612,-0.026665857467703252,0.6184625349364524
33.18,-0.054405453630609835,0.02930988780463561,1.2415421840446044
33.2,-0.010921573539783335,0.037566731752333805,1.227963025855384
33.22,-0.04300881253378702,-0.024574755751939757,1.6075965387767202
33.24,-0.03912666389317555,-0.021825236179988425,1.1240527450271873
33.26,-0.06670843923592916,0.017418464276206806,1.2734951329147284
33.28,0.03142637117895541,-0.02816144944495343,1.4193914045472957
33.3,-0.04707221297345397,0.0051937044698178525,1.56255458329958
33.32,-0.1298603731754335,-0.00035427979923289665,1.2095874114165046
33.34,0.01824393183673089,-0.03375047911101311,1.1306353613398203
33.36,-0.09541256949909421,-0.03551268338332759,1.1123457290623413
33.38,-0.03273381997530261,0.038560208474475596,1.096446692061309
33.4,-0.02357376353449517,-0.00803053863826463,0.4466952968617707
33.42,-0.004133445614684271,-0.1304833517784521,0.3454670627962857
33.44,0.04088260288648715,0.0019780192851485945,0.13212952383340296
33.46,0.055678618118422486,0.08139442846804065,-0.0828299530774522
33.480000000000004,-0.016617126390831696,-0.051333433282329616,0.05793007437213671
33.5,0.017343542417061854,-0.039064198066050985,-0.2656772026313232
33.52,0.026247743543972392,-0.07265225496138904,-0.2940463701043772
33.54,0.005460500698852332,-0.009166063046164529,-0.46644523869949117
33.56,-0.04454496157604348,0.002558266067953102,-0.7101831964184397
33.58,-0.006269509686807385,-0.06273881053743291,-0.35543460676307004
33.6,-0.0795067869602228,0.08395113040563526,-0.427082763319422
33.62,-0.06428250966653422,-0.1490895282278734,-0.4810175187124554
33.64,-0.06357330905681918,0.07432301866566841,-0.4881026903520911
33.660000000000004,0.028245900753444787,0.06384890608159455,-0.18699293191016209
33.68,-0.07775795269597824,-0.026983640883379484,-0.0996239491749124
33.7,-0.05959343436551896,0.021198199780790825,0.04411359866877029
33.72,0.010323879571908293,-0.036488005960499136,0.49500453662122146
33.74,-0.052244884038996686,-0.013943397663455624,0.4980056899652896
33.76,-0.02351933735918231,-0.04071301100900357,0.8220312106535511
33.78,-0.01640021450158997,-0.021450459531311708,1.0145773566230936
33.8,-0.05174528551060095,0.05743799626709112,1.1718852759440013
33.82,-0.017246885096590975,0.022782720899091655,1.327399471123827
33.84,0.021200372377955128,-0.008665293955526286,1.3020782842600762
33.86,-0.03905187062667836,0.028703965728987032,1.6138691244776622
33.88,0.03939994208830722,0.03692248465781056,1.662083758542566
33.9,0.028898554144609446,-0.03864570676285845,1.6044968542062108
33.92,-0.03621987596398051,0.00497175396609976,1.5290599136916798
33.94,0.04214389132217044,0.04956709744385197,1.6798360053405863
33.96,-0.02920574730068551,0.05028650591477749,1.5207606593790144
33.980000000000004,0.10341719601610844,0.044857837348375215,0.9301367551927736
34.0,-0.10290359545153456,-0.014253982631506705,1.0170916752902295
34.02,0.035416583660311224,0.051108618678000296,0.8729072216799468
34.04,-0.022078565591257277,0.034356229149269855,0.895408797832385
34.06,-0.0239719767083563,0.06071151870906345,0.04495913320218048
34.08,0.04331926759221877,0.003577058047362327,-0.28204990707065425
34.1,-0.0359613317392858,-0.05612519058189765,0.08755066681613105
34.12,-0.03614682494734837,0.09358260854291137,-0.054567248432435794
34.14,0.08971952875218091,0.07119826335505788,-0.3567268480597047
34.160000000000004,-0.017368103783883548,-0.021975934886108744,-0.6975558803888171
34.18,0.018266051369941035,-0.07924025384692843,-0.535875328902432
34.2,-0.04673156468996207,0.028137748079316256,-0.21812769562183743
34.22,0.014678540033750074,-0.04662180834697914,-0.5837745035114631
34.24,-0.04114602964358756,-0.05948160111236492,-0.2226717645207906
34.26,0.01433745371254181,0.015619356039121053,-0.294835809197071
34.28,-0.05076081345434046,0.05343180472105108,0.0780810499079655
34.300000000000004,0.030090400114403823,0.05378083821221814,-0.24906037260221342
34.32,-0.07912437124895488,0.04241597567850995,-0.12165161690145498
34.34,0.01885771322521574,0.04602064317715563,0.5524689878001247
34.36,0.028250731901527906,0.03294755062544591,0.6196174932460498
34.38,-0.0822703584168667,0.04020023110952912,0.675087080052891
34.4,0.00046918716650043923,-0.05721364580030154,0.5603490753009736
34.42,0.04484416862622079,0.018164213059506686,0.9848055935101506
34.44,0.0026899958402945784,0.07099886238286976,1.2415168389911688
34.46,-0.004055176273053664,-0.004658079644100721,1.6334178444919947
34.480000000000004,-0.02434873807730431,-0.02844788358899837,1.3866306184816353
34.5,0.10805146415539467,0.025855544093021335,1.4549130907692815
34.52,0.02399922983137893,0.09422600272819355,1.1946068531186882
34.54,-0.055997782708090464,-0.10627514563870928,1.565352678683368
34.56,0.041173662207073615,0.02264348738502569,1.4417815933059104
34.58,-0.05774450424399814,-0.014816336814199202,1.6647542504496307
34.6,0.11606712547446332,-0.03630642588686473,1.3131901449090766
34.62,-0.03159487141670225,0.044609468906306585,1.0133468369850924
34.64,-0.04952501543916968,-0.10595107538296052,1.2757630182991804
34.660000000000004,-0.07373598246051098,-0.045404705905637575,0.4520124090183657
34.68,-0.0051125941306025685,-0.09022557840627847,0.46226059746930726
34.7,0.0020732435610458645,-0.07608863917671893,0.29779358529658567
34.72,0.028826431576619505,-0.04326724906592986,-0.41958513073223963
34.74,-0.014621579251484005,-0.0510573973049408,-0.15442521514263932
34.76,-0.008491701073670107,-0.0697183375482912,-0.511662079917943
34.78,0.05329552479821862,-0.02760110248813595,-0.35783859738278784
34.800000000000004,0.030204036077663882,-0.06520319332439865,-0.5886046530725593
34.82,0.029953586251209627,0.0694994746993267,-0.5838912780674405
34.84,0.07856709809473021,-0.05855045607234081,-0.26288564795859726
34.86,-0.016865233933037616,0.04327977392629714,-0.4531212197303275
34.88,-0.06042126252921218,0.013085296833893874,-0.441391519136062
